sep=;
ACCELEROMETER X (m/sÂ²);ACCELEROMETER Y (m/sÂ²);ACCELEROMETER Z (m/sÂ²);GRAVITY X (m/sÂ²);GRAVITY Y (m/sÂ²);GRAVITY Z (m/sÂ²);LINEAR ACCELERATION X (m/sÂ²);LINEAR ACCELERATION Y (m/sÂ²);LINEAR ACCELERATION Z (m/sÂ²);GYROSCOPE X (rad/s);GYROSCOPE Y (rad/s);GYROSCOPE Z (rad/s);LIGHT (lux);MAGNETIC FIELD X (Î¼T);MAGNETIC FIELD Y (Î¼T);MAGNETIC FIELD Z (Î¼T);ORIENTATION Z (azimuth Â°);ORIENTATION X (pitch Â°);ORIENTATION Y (roll Â°);PROXIMITY (i);ATMOSPHERIC PRESSURE (hPa);SOUND LEVEL (dB);LOCATION Latitude : ;LOCATION Longitude : ;LOCATION Altitude ( m);LOCATION Altitude-google ( m);LOCATION Altitude-atmospheric pressure ( m);LOCATION Speed ( Kmh);LOCATION Accuracy ( m);LOCATION ORIENTATION (Â°);Satellites in range;Time since start in ms ;YYYY-MO-DD HH-MI-SS_SSS
0.0445;3.9754;9.6474;0.8155;2.5659;9.4333;0.8052;-1.2746;-0.4274;-0.5179;0.8713;0.5034;24.023;14.99;7.71;-50.37;315.68;-19.51;-9.49;2.0;999.81;43.497;35.77282;-78.67794;263.23;340.2156534042669;;;71.34516;;0 / 18;6;2018-03-09 12:03:40:698
-0.3191;7.4781;6.7938;-0.6434;6.5493;7.2752;-0.8104;-1.113;1.3679;1.1473;0.1289;0.8867;28.472;20.93;-24.53;-26.07;269.73;-41.88;5.05;2.0;999.8;41.641;35.77282;-78.67794;263.23;340.2156534042669;;;71.34516;;0 / 18;506;2018-03-09 12:03:41:198
0.6578;8.1561;6.659;0.7068;6.6247;7.2007;-1.1881;-2.4051;1.1053;-0.0579;-0.0994;0.1066;21.354;13.95;-26.37;-30.48;273.7;-43.54;-3.94;2.0;999.79;42.677;35.77282;-78.67794;263.23;340.2156534042669;;;71.34516;;0 / 18;1006;2018-03-09 12:03:41:698
-0.7464;6.9516;6.3834;-0.4081;6.0159;7.7381;0.423;-0.8579;1.5098;-0.2174;-0.1638;-0.2363;21.354;22.19;-18.78;-31.94;282.94;-38.86;0.9;2.0;999.79;56.149;35.77282;-78.67794;263.23;340.2156534042669;;;71.34516;;0 / 18;1506;2018-03-09 12:03:42:198
-0.7508;6.0088;7.7582;0.5352;4.5601;8.6692;0.9987;-1.2167;0.95;-0.5178;-0.3119;-0.0083;21.354;18.6;-9.43;-44.08;305.65;-30.24;-1.05;2.0;999.8;54.941;35.77282;-78.67794;263.23;340.2156534042669;;;71.34516;;0 / 18;2006;2018-03-09 12:03:42:698
-1.2243;4.3656;7.6946;-1.5553;4.1853;8.735;-1.1838;-1.2467;0.6066;-0.0901;0.7739;-0.1543;24.913;25.86;-6.02;-39.48;306.49;-25.62;3.3;2.0;999.78;53.212;35.77282;-78.67794;263.23;340.2156534042669;;;71.34516;;0 / 18;2506;2018-03-09 12:03:43:198
-1.8687;6.2684;5.593;-0.8109;7.3632;6.4313;0.857;1.182;1.3985;1.5572;-2.118;-0.3149;32.921;18.79;-21.49;-27.77;302.35;-39.78;14.2;2.0;999.73;41.941;35.77282;-78.67794;263.23;340.2156534042669;;;71.34516;;0 / 18;3006;2018-03-09 12:03:43:698
22.0487;-1.8907;9.0642;8.693;-4.5341;-0.331;-13.1496;1.8568;-8.5552;-2.3746;0.2085;3.0612;32.921;-66.86;34.87;-16.48;327.18;-34.75;-95.66;2.0;999.68;41.304;35.77282;-78.67794;263.23;340.2156534042669;;;71.34516;;0 / 18;3506;2018-03-09 12:03:44:198
13.0007;-1.9805;2.5543;9.296;-2.0727;2.3506;-2.1092;0.401;1.6508;0.581;0.5468;-0.0059;38.259;-59.28;51.16;-23.0;341.34;14.53;-81.2;2.0;999.73;43.055;35.77282;-78.67794;263.23;340.2156534042669;;;71.34516;;0 / 18;4006;2018-03-09 12:03:44:698
10.7083;-0.0652;5.4811;9.1434;0.124;3.5524;-5.0127;-3.8089;-6.9825;-0.0535;0.0374;-1.0453;25.803;-69.18;39.27;-15.25;15.43;-0.72;-68.77;2.0;999.74;42.921;35.77282;-78.67794;263.23;340.2156534042669;;;71.34516;;0 / 18;4506;2018-03-09 12:03:45:198
5.5001;2.5528;-0.7082;9.7641;0.113;-0.9415;3.1155;-2.9956;1.2252;-1.2741;-1.4846;-0.0892;25.803;-67.02;29.41;26.92;33.96;0.95;-88.26;0.0;999.71;48.034;35.77282;-78.67794;263.23;340.2156534042669;;;71.34516;;0 / 18;5006;2018-03-09 12:03:45:698
8.7562;-9.2811;3.7794;9.4422;-2.1277;-1.5979;-2.142;4.0437;-4.747;0.0237;1.6653;3.4588;1.78;-47.72;48.0;22.61;22.3;12.53;-99.61;0.0;999.67;51.774;35.77282;-78.67794;263.23;340.2156534042669;;;71.34516;;0 / 18;5506;2018-03-09 12:03:46:198
2.8892;-8.8593;1.3273;6.1735;-7.6157;0.3529;5.7377;-1.307;0.2636;-1.0469;-0.1698;1.8154;0.001;-23.92;59.53;17.79;34.68;39.48;-81.44;0.0;999.75;50.494;35.77282;-78.67794;263.23;340.2156534042669;;;71.34516;;0 / 18;6008;2018-03-09 12:03:46:700
4.0589;-4.5838;-2.9;6.8517;-6.5635;-2.4923;3.5169;-3.1118;-6.9551;0.9761;0.0819;-0.4109;0.001;-26.43;63.86;9.28;4.85;46.18;-110.56;0.0;1000.15;49.736;35.77282;-78.67794;263.23;340.2156534042669;;;71.34516;;0 / 18;6507;2018-03-09 12:03:47:199
0.3552;-12.2965;0.9864;-1.6225;-9.562;1.4739;-7.3123;4.317;2.876;-0.1603;1.0345;-0.427;0.001;14.64;68.87;-18.66;153.15;77.09;47.75;0.0;999.99;66.279;35.77282;-78.67794;263.23;340.2156534042669;;;71.34516;;0 / 18;7007;2018-03-09 12:03:47:699
2.2907;-15.5653;-11.0391;0.6669;-9.2754;-3.1237;-13.4792;27.7881;12.2325;0.0956;-0.6898;0.1558;0.001;-8.64;73.67;2.38;344.81;62.97;-163.28;0.0;1000.03;61.947;35.77282;-78.67794;263.23;340.2156534042669;;;71.34516;;0 / 18;7507;2018-03-09 12:03:48:199
1.5198;-13.76;0.2145;-2.1831;-9.4368;1.5544;-4.456;0.154;0.0703;0.6803;0.8325;0.8297;0.001;19.45;73.2;-9.08;195.76;83.88;47.42;0.0;999.89;60.104;35.77282;-78.67794;263.23;340.2156534042669;;;71.34516;;0 / 18;8008;2018-03-09 12:03:48:700
16.7499;-41.042;-12.8063;0.8404;-9.3296;-2.9133;-12.3046;22.7527;18.7335;2.4692;-0.4378;0.6967;0.001;-2.73;64.0;35.84;169.98;75.35;-166.88;0.0;999.82;61.2;35.77282;-78.67794;263.23;340.2156534042669;;;71.34516;;0 / 18;8506;2018-03-09 12:03:49:198
1.331;-10.9625;0.2505;-1.4821;-9.6217;1.2093;-4.2099;0.0636;0.1133;0.878;0.7013;1.2747;0.001;2.31;51.67;18.23;8.2;88.51;-8.74;0.0;999.8;60.268;35.77282;-78.67794;263.23;340.2156534042669;;;71.34516;;0 / 18;9006;2018-03-09 12:03:49:698
-2.854;-2.6763;1.7198;1.1501;-8.8905;-3.984;4.0098;-5.925;-4.9579;0.9352;-1.4998;-0.1467;0.001;3.29;49.63;11.16;131.99;80.23;175.19;0.0;999.73;57.277;35.77282;-78.67794;263.23;340.2156534042669;;;71.34516;;0 / 18;9507;2018-03-09 12:03:50:199
2.6054;-8.8569;2.3068;-0.7073;-9.7567;0.7373;-0.9884;-2.3474;-1.3006;0.8212;2.0898;0.8755;0.001;11.64;53.4;-13.92;10.27;87.06;-151.16;0.0;999.87;58.714;35.77282;-78.67794;263.23;340.2156534042669;;;71.34516;;0 / 18;10007;2018-03-09 12:03:50:699
1.6388;-10.3889;0.7631;1.3966;-8.8638;-3.9647;2.1611;-3.6916;-5.3101;-0.9333;-2.8659;-1.4592;0.001;-0.44;75.89;0.74;0.4;76.14;-173.05;0.0;999.61;50.074;35.77282;-78.67794;263.23;340.2156534042669;;;71.34516;;0 / 18;10507;2018-03-09 12:03:51:199
-0.1514;-7.7659;0.8867;0.4473;-9.7732;-0.7212;-0.6894;3.069;-2.1313;1.3336;1.5324;0.5898;0.001;-13.1;74.54;-7.69;328.17;73.36;-158.99;0.0;999.8;57.108;35.77282;-78.67794;263.23;340.2156534042669;;;71.34516;;0 / 18;11006;2018-03-09 12:03:51:698
-1.1389;-13.3665;-1.3949;-0.8657;-9.7698;-0.1923;1.6004;1.2679;0.8638;-0.997;0.4268;-0.216;0.001;2.4;72.73;-6.53;49.68;84.81;102.53;0.0;999.83;48.19;35.77282;-78.67794;263.23;340.2156534042669;;;71.34516;;0 / 18;11507;2018-03-09 12:03:52:199
-2.2302;-9.3671;-2.8863;-1.5668;-9.3465;-2.5345;0.4808;-0.2567;0.2294;-0.2319;0.0757;0.058;0.001;4.58;70.14;10.24;353.85;73.15;150.58;0.0;999.69;55.786;35.77282;-78.67794;263.23;340.2156534042669;;;71.34516;;0 / 18;12006;2018-03-09 12:03:52:698
-2.2213;-9.5211;-0.6669;-0.9403;-9.4722;-2.3727;-1.9566;1.1831;-1.523;1.336;0.9276;-0.2562;0.001;-1.02;68.11;6.77;343.39;74.92;158.38;0.0;1000.07;51.023;35.77282;-78.67794;263.23;340.2156534042669;;;71.34516;;0 / 18;12506;2018-03-09 12:03:53:198
2.958;-12.0604;0.661;-2.4626;-9.38;1.4788;-3.4073;4.2898;1.8648;0.185;0.5364;0.4184;0.001;13.12;63.4;0.69;317.65;72.97;59.01;0.0;999.78;50.747;35.77282;-78.67794;263.23;340.2156534042669;;;71.34516;;0 / 18;13006;2018-03-09 12:03:53:698
1.1483;-8.6085;-7.0556;1.3314;-9.3424;-2.6803;-2.6932;3.904;10.3814;1.8019;-0.1824;0.1215;0.001;3.06;70.51;25.28;56.99;63.55;-159.57;0.0;999.8;56.41;35.77282;-78.67794;263.23;340.2156534042669;;;71.34516;;0 / 18;13507;2018-03-09 12:03:54:199
2.028;-9.0347;-0.6055;-0.8386;-9.6849;1.3171;-3.3273;1.2374;2.0543;0.6047;2.0196;1.3006;0.001;12.64;69.67;11.34;22.72;85.78;-64.52;0.0;999.75;54.995;35.77282;-78.67794;263.23;340.2156534042669;;;71.34516;;0 / 18;14006;2018-03-09 12:03:54:698
-2.1806;-3.4259;1.0082;1.87;-8.5395;-4.4516;5.0797;-7.2154;-5.6616;-0.3649;-1.9467;-0.8924;0.001;-11.13;73.7;45.16;156.41;70.0;-156.7;0.0;999.68;51.139;35.77282;-78.67794;263.23;340.2156534042669;;;71.34516;;0 / 18;14506;2018-03-09 12:03:55:198
2.183;-8.3695;1.1552;0.0249;-9.803;0.3696;-2.7668;-0.451;-1.2837;1.0814;1.5603;0.6631;0.001;-17.4;93.91;23.52;35.2;87.84;-3.86;0.0;999.84;59.451;35.77282;-78.67794;263.23;340.2156534042669;;;71.34516;;0 / 18;15006;2018-03-09 12:03:55:698
1.753;-8.3395;0.0273;1.639;-8.8843;-3.8235;-0.5517;-0.5429;-3.3799;-1.2301;-1.2632;-1.6714;0.001;-33.08;58.94;51.81;198.14;64.91;-156.8;0.0;999.56;48.759;35.77282;-78.67794;263.23;340.2156534042669;;;71.34516;;0 / 18;15507;2018-03-09 12:03:56:199
0.3752;-7.9379;0.3358;0.7034;-9.7618;-0.6695;-0.1535;-2.2096;-0.9652;1.4636;1.6866;0.8029;0.001;-35.48;64.76;38.84;191.65;72.24;-156.38;0.0;999.74;58.748;35.77282;-78.67794;263.23;340.2156534042669;;;71.34516;;0 / 18;16007;2018-03-09 12:03:56:699
-2.8216;-13.6178;0.415;0.4089;-9.4782;-2.4966;-0.1625;3.7308;0.2048;-2.1292;0.3314;-1.3888;0.001;-44.16;52.51;38.6;3.88;77.96;50.89;0.0;999.61;53.027;35.77282;-78.67794;263.23;340.2156534042669;;;71.34516;;0 / 18;16507;2018-03-09 12:03:57:199
-2.6244;-6.492;4.692;1.3369;-9.2664;-2.9296;4.905;9.4241;3.5109;-0.1447;-0.0786;-0.0708;0.001;-15.08;16.0;37.44;180.91;69.37;-158.66;0.0;999.88;57.423;35.772808;-78.677895;263.23;NaN;;;70.380646;;0 / 18;17007;2018-03-09 12:03:57:699
3.4025;-12.2376;-1.4865;-0.6145;-9.7877;-0.2426;-2.3582;-0.0427;-0.7545;-0.6699;1.1467;-0.0721;0.001;-14.42;30.64;15.7;294.72;86.14;111.54;0.0;999.87;56.829;35.772808;-78.677895;263.23;NaN;;;70.380646;;0 / 18;17507;2018-03-09 12:03:58:199
-0.5625;-10.0459;-3.3423;0.5673;-9.3761;-2.8291;1.355;0.5089;0.3593;0.2625;0.47;0.1321;0.001;-12.53;29.84;15.81;236.56;70.16;-170.38;0.0;999.7;56.627;35.772808;-78.677895;263.23;NaN;;;70.380646;;0 / 18;18006;2018-03-09 12:03:58:698
-0.6184;-9.081;-3.3067;-0.2732;-9.1288;-3.5814;0.2563;-0.2145;-0.3992;-0.1577;0.177;0.2813;0.001;-11.92;31.07;16.72;244.32;69.7;-178.28;0.0;999.84;50.546;35.772808;-78.677895;263.23;NaN;;;70.380646;;0 / 18;18507;2018-03-09 12:03:59:199
-1.6146;-9.3799;-2.7401;-0.7062;-8.9663;-3.917;0.0504;-2.286;-1.2303;-0.3008;0.0512;-0.0983;0.001;-12.72;36.97;14.29;280.47;66.06;169.78;0.0;999.91;49.455;35.772808;-78.677895;263.23;NaN;;;70.380646;;0 / 18;19006;2018-03-09 12:03:59:698
1.6087;-10.2013;1.8903;-0.4237;-9.7382;1.1063;-1.1882;0.0187;0.9778;0.7802;1.1925;0.4268;0.001;-9.09;40.16;-3.28;61.04;83.06;20.95;0.0;999.7;52.306;35.772808;-78.677895;263.23;NaN;;;70.380646;;0 / 18;19507;2018-03-09 12:04:00:199
1.319;-9.8667;-0.4565;0.7966;-9.4947;-2.3352;1.939;-2.2153;-3.964;-1.7126;0.3332;-1.6441;0.001;-16.67;46.05;4.95;276.61;75.43;-161.16;0.0;999.52;50.311;35.772808;-78.677895;263.23;NaN;;;70.380646;;0 / 18;20006;2018-03-09 12:04:00:698
0.8717;-8.1997;3.5745;2.2857;-9.3936;-1.6652;-2.7737;6.3249;-2.4175;-0.6221;2.4689;0.7011;0.001;-18.15;45.37;0.41;217.14;72.59;-119.56;0.0;999.79;54.847;35.772808;-78.677895;263.23;NaN;;;70.380646;;0 / 18;20506;2018-03-09 12:04:01:198
-1.9632;-9.9014;0.3214;1.2275;-9.715;-0.5902;2.7449;1.202;-0.8735;-0.3111;0.8006;0.0632;0.001;-11.46;45.19;0.02;228.97;81.99;-105.14;0.0;999.77;52.152;35.772808;-78.677895;263.23;NaN;;;70.380646;;0 / 18;21009;2018-03-09 12:04:01:701
-0.6744;-9.8739;-2.9426;-1.5017;-9.5521;-1.6546;0.6584;-1.715;-0.269;0.2874;0.2322;0.4841;0.001;-0.33;43.57;-0.23;340.0;79.43;153.96;0.0;999.82;49.733;35.772808;-78.677895;263.23;NaN;;;70.380646;;0 / 18;21506;2018-03-09 12:04:02:198
-0.7261;-10.1846;0.1485;-1.0815;-9.7487;0.1732;-0.4047;0.3509;-0.1395;0.1069;0.2634;-0.0179;0.001;0.29;43.42;-2.93;30.91;83.17;87.97;0.0;999.74;52.564;35.772808;-78.677895;263.23;NaN;;;70.380646;;0 / 18;22007;2018-03-09 12:04:02:699
-0.9665;-9.7902;0.2061;-0.8672;-9.7706;0.1379;-4.0E-4;-0.0229;-0.0297;0.034;0.0681;-0.0515;0.001;1.88;41.87;-3.5;63.46;84.86;80.97;0.0;999.71;58.083;35.772808;-78.677895;263.23;NaN;;;70.380646;;0 / 18;22506;2018-03-09 12:04:03:198
-0.8811;-9.9716;0.6805;-0.5702;-9.7871;0.3507;0.3672;-0.2754;-0.1017;0.0536;0.0512;-0.0685;0.001;0.58;42.68;-1.82;45.93;85.86;66.76;0.0;999.73;50.865;35.772808;-78.677895;263.23;NaN;;;70.380646;;0 / 18;23006;2018-03-09 12:04:03:698
-0.0069;-9.8763;0.5206;0.0692;-9.8097;0.0366;-0.0959;0.15;-0.4288;-0.1964;0.5383;-0.1659;0.001;0.76;40.26;-1.46;61.99;86.95;36.89;0.0;999.72;47.531;35.772808;-78.677895;263.23;NaN;;;70.380646;;0 / 18;23507;2018-03-09 12:04:04:199
0.3663;-9.7043;-1.0399;-0.5902;-9.5389;-2.2129;-1.6908;0.2782;1.4725;-0.6904;-1.3512;-0.0127;0.001;-1.57;40.82;3.41;339.55;76.5;165.07;0.0;999.69;54.66;35.772808;-78.677895;263.23;NaN;;;70.380646;;0 / 18;24006;2018-03-09 12:04:04:698
0.4004;-9.2049;-1.8994;1.0965;-9.0678;-3.5788;1.8995;-0.5042;-1.2841;0.2289;-2.4015;-0.7995;0.001;-8.97;38.99;14.0;269.36;67.89;-164.4;0.0;999.78;58.041;35.772808;-78.677895;263.23;NaN;;;70.380646;;0 / 18;24507;2018-03-09 12:04:05:199
0.3112;-11.05;2.0446;-0.0933;-9.8011;0.4075;0.5834;1.5114;-0.4679;1.2312;1.6427;1.0659;0.001;0.16;33.06;11.01;122.63;80.01;-149.32;0.0;999.69;58.91;35.772808;-78.677895;263.23;NaN;;;70.380646;;0 / 18;25006;2018-03-09 12:04:05:698
-3.8523;-16.5614;0.8637;1.7984;-6.1994;-7.3871;0.6437;0.2567;-8.5876;-4.0261;-2.078;-2.3574;0.001;2.89;24.07;25.6;313.35;78.87;52.9;0.0;999.55;53.824;35.772808;-78.677895;263.23;NaN;;;70.380646;;0 / 18;25506;2018-03-09 12:04:06:198
0.9316;-11.8479;-2.439;1.7938;-8.4087;-4.7236;-0.3995;1.0987;-3.0163;2.6384;1.9919;0.5795;0.001;-7.91;27.48;28.5;167.35;59.0;-159.21;0.0;999.68;57.863;35.772808;-78.677895;263.23;NaN;;;70.380646;;0 / 18;26007;2018-03-09 12:04:06:699
0.5428;-16.504;-3.29;-1.0768;-9.7193;0.7828;-3.9854;3.7917;5.9599;-0.3878;0.145;-0.2492;0.001;-18.17;40.59;16.53;353.95;82.2;53.98;0.0;999.43;56.181;35.772808;-78.677895;263.23;NaN;;;70.380646;;0 / 17;26507;2018-03-09 12:04:07:199
0.5727;-14.6119;-7.3072;1.0091;-7.2134;-6.5715;1.527;5.3765;2.4787;1.9484;0.7954;-0.2508;0.001;-24.79;38.21;34.47;264.89;47.33;-171.27;0.0;1000.16;57.445;35.772808;-78.677895;263.23;NaN;;;70.380646;;0 / 17;27006;2018-03-09 12:04:07:698
-3.7631;-16.3426;2.24;-1.6393;-9.6113;1.082;1.956;7.7843;3.5806;0.251;0.5205;0.2778;0.001;-19.03;56.89;9.75;3.75;78.45;56.57;0.0;999.59;61.155;35.772808;-78.677895;263.23;NaN;;;70.380646;;0 / 17;27507;2018-03-09 12:04:08:199
1.2216;-5.1273;-5.7983;0.1652;-6.6194;-7.2383;4.7257;3.7629;2.0182;1.2916;0.3184;-0.1208;0.001;-19.72;41.49;45.21;268.78;42.44;-178.69;0.0;1000.04;59.335;35.772808;-78.677895;263.23;NaN;;;70.380646;;0 / 17;28006;2018-03-09 12:04:08:698
-1.3452;-15.0279;1.9839;-1.5286;-9.6326;1.0544;-4.9584;3.2591;2.4221;0.7296;0.9637;0.9351;0.001;-14.44;65.97;9.95;314.49;87.38;107.13;0.0;999.64;59.245;35.772808;-78.677895;263.23;NaN;;;70.380646;;0 / 17;28507;2018-03-09 12:04:09:199
-2.1135;-0.2863;-3.5932;-0.7258;-6.1516;-7.607;2.1754;-4.7393;-8.1714;-1.1125;-1.5772;-0.0452;0.001;-5.79;37.08;55.46;245.28;38.83;174.55;0.0;999.97;58.893;35.772808;-78.677895;263.23;NaN;;;70.380646;;0 / 17;29007;2018-03-09 12:04:09:699
-0.3846;-8.9167;-0.3401;-1.0969;-9.7367;0.48;-3.1915;1.909;4.3199;1.3202;0.3196;0.7256;0.001;-8.7;70.65;16.8;333.13;82.99;66.37;0.0;999.54;60.233;35.772808;-78.677895;263.23;NaN;;;70.380646;;0 / 18;29506;2018-03-09 12:04:10:198
-1.4065;-5.2301;-0.819;0.0062;-6.9618;-6.9115;1.4009;-3.433;-7.9432;-2.9406;-2.81;-0.9564;0.001;-0.9;42.53;50.27;187.32;66.75;-172.56;0.0;999.81;56.562;35.772808;-78.677895;263.23;NaN;;;70.380646;;0 / 18;30007;2018-03-09 12:04:10:699
3.6357;-9.1688;-0.0868;-0.149;-9.8001;-0.4137;-3.1106;-1.6021;0.1597;2.0815;1.1956;1.0634;0.001;-9.16;63.44;29.69;308.08;53.46;-175.06;0.0;999.59;60.524;35.772808;-78.677895;263.23;NaN;;;70.380646;;0 / 17;30506;2018-03-09 12:04:11:198
4.297;-14.3981;-6.3145;0.4385;-7.9564;-5.7218;4.319;2.0661;-4.1102;-3.4933;-2.0925;-1.3315;0.001;-8.66;56.85;34.49;231.17;82.37;153.61;0.0;999.5;54.191;35.772808;-78.677895;263.23;NaN;;;70.380646;;0 / 17;31006;2018-03-09 12:04:11:698
0.2716;-11.9336;-1.5013;2.1099;-8.5692;-4.2841;0.586;3.6205;-2.8497;2.2427;3.4818;0.5831;0.001;-26.63;54.58;22.63;294.03;45.6;-174.22;0.0;1000.15;58.759;35.772808;-78.677895;263.23;NaN;;;70.380646;;0 / 18;31506;2018-03-09 12:04:12:198
2.2718;-11.5755;-0.4663;0.1297;-9.7203;1.3173;-2.2453;1.1248;1.5559;-0.3933;1.5016;0.0697;0.001;-7.86;56.38;-18.44;173.57;79.66;-24.33;0.0;999.37;58.963;35.772808;-78.677895;263.23;NaN;;;70.380646;;0 / 18;32006;2018-03-09 12:04:12:698
-2.663;-6.2064;-1.8717;1.4881;-9.4053;-2.3585;2.0472;-2.2771;-0.8761;0.5131;2.8759;0.2939;0.001;-20.21;59.76;-1.33;314.8;66.56;-162.57;0.0;999.58;57.24;35.772808;-78.677895;263.23;NaN;;;70.380646;;0 / 18;32507;2018-03-09 12:04:13:199
2.3354;-10.0304;-0.1505;1.0981;-9.6915;1.0512;-2.9499;-0.1994;-0.0022;0.3644;1.6812;0.2004;0.001;-2.18;56.9;-13.78;284.46;81.33;-76.28;0.0;999.59;56.827;35.772808;-78.677895;263.23;NaN;;;70.380646;;0 / 18;33006;2018-03-09 12:04:13:698
1.4413;-16.272;-4.5322;-0.325;-9.7755;0.7557;3.2467;1.5739;-3.1859;-1.4976;0.2049;-0.3791;0.001;-4.38;58.83;-4.74;71.0;85.19;23.27;0.0;999.49;52.433;35.772808;-78.677895;263.23;NaN;;;70.380646;;0 / 18;33507;2018-03-09 12:04:14:199
-1.224;-15.0362;-6.7764;0.9057;-7.8128;-5.8631;0.735;1.5396;-2.3439;1.6333;1.7731;0.1289;0.001;-16.14;57.75;21.93;321.78;52.79;-171.22;0.0;999.74;62.545;35.772808;-78.677895;263.23;NaN;;;70.380646;;0 / 18;34006;2018-03-09 12:04:14:698
-1.1492;-15.5204;-0.1723;-0.8712;-9.6092;1.7722;0.9959;7.8703;-0.6862;0.5335;-0.125;0.2087;0.001;-6.95;59.02;-6.26;83.61;82.94;15.61;0.0;999.24;57.563;35.772808;-78.677895;263.23;NaN;;;70.380646;;0 / 18;34507;2018-03-09 12:04:15:199
-2.404;-5.1518;-5.4914;-0.3043;-7.2007;-6.6553;0.4435;-3.3523;-0.0678;1.8721;0.8361;-0.6381;0.001;-25.82;55.12;21.28;310.28;47.22;177.38;0.0;1000.07;58.452;35.772808;-78.677895;263.23;NaN;;;70.380646;;0 / 18;35006;2018-03-09 12:04:15:698
1.246;-10.4569;-1.492;-0.7068;-9.6347;1.7056;-1.8295;2.3149;-0.1263;0.9044;0.9835;0.6398;0.001;-16.4;48.09;-21.08;99.95;79.15;22.51;0.0;999.42;55.316;35.772808;-78.677895;263.23;NaN;;;70.380646;;0 / 18;35507;2018-03-09 12:04:16:199
-0.7183;-4.9981;-0.938;-0.4723;-6.9591;-6.8981;0.8157;-3.0515;-6.5604;-2.6285;-2.3371;-0.6615;0.001;-42.02;52.56;16.54;302.43;45.19;176.08;0.0;999.64;53.5;35.772808;-78.677895;263.23;NaN;;;70.380646;;0 / 18;36006;2018-03-09 12:04:16:698
2.1616;-9.5329;-0.8829;0.6003;-9.7446;-0.958;-1.7122;-0.2038;-0.414;1.8701;1.3262;0.5862;0.001;-38.76;39.25;-1.07;279.77;67.94;-165.6;0.0;999.52;58.205;35.772808;-78.677895;263.23;NaN;;;70.380646;;0 / 19;36508;2018-03-09 12:04:17:200
-0.2755;-11.1397;3.037;0.0765;-9.0888;-3.691;0.0914;-2.4065;-5.5475;-3.6652;-0.3828;-0.9482;0.001;-30.44;47.56;0.04;300.25;67.89;-178.81;0.0;999.35;56.643;35.772808;-78.677895;263.23;NaN;;;70.380646;;0 / 19;37006;2018-03-09 12:04:17:698
-0.7187;-10.0289;-2.1521;0.4427;-9.1856;-3.4153;-0.4107;1.9717;-1.8983;2.0195;0.6614;0.5448;0.001;-24.21;47.66;7.5;286.01;69.45;-172.61;0.0;999.43;60.862;35.772808;-78.677895;263.23;NaN;;;70.380646;;0 / 19;37507;2018-03-09 12:04:18:199
-1.9838;-15.095;-4.4853;-1.5521;-9.6612;0.6985;1.0359;5.3668;4.6183;-1.0724;-0.0264;0.0351;0.001;-11.92;48.84;-10.22;54.64;79.58;47.74;0.0;999.23;53.09;35.772808;-78.677895;263.23;NaN;;;70.380646;;0 / 19;38007;2018-03-09 12:04:18:699
-2.4055;-5.4375;-7.1757;-1.0524;-6.9621;-6.8306;0.5371;-3.1339;-1.816;1.1416;1.1585;0.4317;0.001;-14.89;54.07;13.85;331.3;40.57;168.87;0.0;999.78;56.623;35.772808;-78.677895;263.23;NaN;;;70.380646;;0 / 19;38507;2018-03-09 12:04:19:199
2.7742;-8.5063;-1.8348;0.4933;-9.7602;-0.8555;-2.4373;-1.5415;2.0071;0.277;2.7206;0.3658;0.001;2.54;50.33;-10.94;351.1;79.0;-148.56;0.0;999.09;57.885;35.772808;-78.677895;263.23;NaN;;;70.380646;;0 / 19;39007;2018-03-09 12:04:19:699
-3.2878;-5.0647;-3.7318;-1.1842;-9.0265;-3.6546;0.2617;-4.0544;0.0336;-2.2226;3.4558;0.3287;0.001;20.73;41.76;-4.08;75.52;82.79;146.45;0.0;999.19;52.852;35.772808;-78.677895;263.23;NaN;;;70.380646;;0 / 19;39507;2018-03-09 12:04:20:199
1.603;-10.9312;-1.8289;-1.6907;-9.6599;0.2544;-4.7073;2.1028;3.3266;0.3624;2.1781;-0.2436;0.001;18.22;37.12;51.25;235.3;78.57;95.08;0.0;999.36;51.729;35.772808;-78.677895;263.23;NaN;;;70.380646;;0 / 19;40007;2018-03-09 12:04:20:699
-0.6846;-9.2057;0.7655;-1.8799;-9.616;0.4847;-1.386;-0.3285;0.3244;-0.1861;0.452;0.4519;0.001;-0.58;41.71;60.31;297.96;81.33;68.12;0.0;999.33;48.17;35.772808;-78.677895;263.23;NaN;;;70.380646;;0 / 19;40506;2018-03-09 12:04:21:198
-1.2058;-4.3624;-1.9877;-0.1741;-8.607;-4.7038;-0.0682;-1.1063;0.3857;0.5851;-0.548;-0.9016;0.001;21.55;25.22;38.26;136.96;61.33;177.88;0.0;999.3;55.96;35.772808;-78.677895;263.23;NaN;;;70.380646;;0 / 19;41006;2018-03-09 12:04:21:698
1.7857;-9.53;-3.5759;-0.1611;-9.6422;-1.7996;-1.2913;-2.6954;1.7542;0.5349;0.7189;0.097;0.001;14.77;40.29;34.88;160.51;79.39;174.89;0.0;999.27;56.362;35.772808;-78.677895;263.23;NaN;;;70.380646;;0 / 19;41508;2018-03-09 12:04:22:200
-0.8914;-3.8443;-0.9675;-0.0332;-7.9895;-5.6924;1.3903;-5.8725;-4.5189;0.4949;-0.5843;-0.5131;0.001;13.57;28.91;36.93;144.61;58.87;178.09;0.0;999.18;59.333;35.772808;-78.677895;263.23;NaN;;;70.380646;;0 / 19;42007;2018-03-09 12:04:22:699
2.715;-8.9578;-3.1087;0.2567;-9.7055;-1.4049;-2.453;-0.8378;1.5352;0.7288;-0.0979;-0.1205;0.001;13.28;45.72;39.26;145.63;81.63;-169.65;0.0;999.41;57.516;35.772808;-78.677895;263.23;NaN;;;70.380646;;0 / 19;42507;2018-03-09 12:04:23:199
-2.2287;-1.6834;-0.75;-0.1016;-8.8139;-4.3059;-0.4731;-2.264;1.3781;2.3882;-0.6587;-0.2183;0.001;21.96;42.77;36.44;124.08;54.21;-179.57;0.0;999.29;56.251;35.772808;-78.677895;263.23;NaN;;;70.380646;;0 / 19;43008;2018-03-09 12:04:23:700
0.8561;-7.6275;-2.4634;-0.4204;-9.7276;-1.1968;-0.9951;-2.653;0.802;0.3593;-0.8685;0.3018;0.001;23.47;50.48;32.11;145.97;78.55;169.64;0.0;999.35;57.242;35.772808;-78.677895;263.23;NaN;;;70.380646;;0 / 19;43506;2018-03-09 12:04:24:198
-0.1767;-5.6247;-3.2516;-0.9151;-9.4256;-2.5607;-0.9719;-3.7301;0.5975;3.004;0.3434;0.1273;0.001;22.77;52.13;30.24;123.62;55.56;169.71;0.0;999.34;56.753;35.772808;-78.677895;263.23;NaN;;;70.380646;;0 / 19;44007;2018-03-09 12:04:24:699
0.6848;-7.4856;-2.0534;-0.6159;-9.7377;-1.0167;-0.8459;-1.5825;1.4864;-0.0984;0.1011;0.4106;0.001;14.74;63.19;17.6;167.15;83.04;148.79;0.0;999.44;54.473;35.772808;-78.677895;263.23;NaN;;;70.380646;;0 / 19;44507;2018-03-09 12:04:25:199
0.5517;-12.1373;-6.7513;-0.9539;-9.6245;-1.642;2.527;-2.1126;3.2346;1.0192;-0.6259;-0.0016;0.001;2.71;65.81;12.14;23.3;64.9;174.31;0.0;999.41;57.808;35.772808;-78.677895;263.23;NaN;;;70.380646;;0 / 19;45007;2018-03-09 12:04:25:699
0.6512;-13.5239;-4.9906;-1.2646;-9.2315;-3.0685;-1.9106;5.4367;3.791;-2.5688;-0.67;-0.0169;0.001;-7.44;64.12;15.08;298.83;79.35;159.98;0.0;999.49;53.807;35.772808;-78.677895;263.23;NaN;;;70.380646;;0 / 19;45507;2018-03-09 12:04:26:199
-1.1607;-16.2897;0.1635;0.0437;-9.5457;-2.2615;-3.0184;2.3454;-11.8423;-0.0724;-0.0083;-0.7516;0.001;-14.12;60.94;35.82;212.08;76.67;-178.89;0.0;999.62;59.345;35.772808;-78.677895;263.23;NaN;;;70.380646;;0 / 19;46007;2018-03-09 12:04:26:699
2.2496;-14.6148;-1.7735;-2.1882;-9.5628;0.0118;-4.8249;1.9536;2.2226;-1.5269;-0.5843;-0.4097;0.001;0.64;71.02;23.1;298.53;83.03;91.49;0.0;999.66;52.274;35.772808;-78.677895;263.23;NaN;;;70.380646;;0 / 19;46506;2018-03-09 12:04:27:198
4.4721;-9.0196;-1.6098;0.1664;-9.4558;-2.6069;-4.8647;-0.4089;-1.744;-0.0944;-2.3466;-0.6976;0.001;10.62;69.81;41.68;147.08;74.56;-176.35;0.0;999.55;56.268;35.772808;-78.677895;263.23;NaN;;;70.380646;;0 / 19;47006;2018-03-09 12:04:27:698
2.3632;-9.5333;0.6111;-0.9221;-9.7617;0.3086;-0.0626;-0.4154;0.6809;0.8697;-0.788;0.2858;0.001;29.79;76.28;23.29;130.02;80.05;179.31;0.0;999.54;55.812;35.772808;-78.677895;263.23;NaN;;;70.380646;;0 / 19;47506;2018-03-09 12:04:28:198
0.2731;-11.8108;-3.8566;-0.7951;-9.1861;-3.3494;-3.0665;3.6136;2.5088;-2.6669;-0.9338;-1.0352;0.001;32.57;72.31;15.74;222.83;81.06;85.42;0.0;999.48;52.185;35.772808;-78.677895;263.23;NaN;;;70.380646;;0 / 19;48007;2018-03-09 12:04:28:699
0.5365;-9.7999;-3.1534;1.1165;-9.5686;-1.8523;1.6312;-1.4873;5.1556;1.0102;1.8369;-0.1996;0.001;12.3;77.91;8.52;43.51;77.26;-148.92;0.0;999.41;59.049;35.772808;-78.677895;263.23;NaN;;;70.380646;;0 / 19;48506;2018-03-09 12:04:29:198
1.886;-7.8338;-1.9729;0.7637;-9.722;-1.0657;-1.192;-1.9582;0.0341;0.2033;-0.4702;0.1164;0.001;3.91;74.46;3.23;27.07;82.32;-144.37;0.0;999.63;57.491;35.772808;-78.677895;263.23;NaN;;;70.380646;;0 / 19;49006;2018-03-09 12:04:29:698
0.2535;-8.2048;-3.7665;0.5162;-9.6218;-1.8413;0.1719;3.8739;3.4924;3.0409;0.3613;0.617;0.001;3.19;67.01;8.66;44.8;78.76;-164.34;0.0;999.57;56.526;35.772808;-78.677895;263.23;NaN;;;70.380646;;0 / 19;49507;2018-03-09 12:04:30:199
-1.7097;-8.0037;-3.3576;0.6726;-9.6894;-1.3781;2.6778;-1.5833;2.3281;0.0035;-0.3108;0.6788;0.001;9.09;68.66;11.97;57.26;78.39;-149.07;0.0;999.7;55.651;35.772808;-78.677895;263.23;NaN;;;70.380646;;0 / 19;50007;2018-03-09 12:04:30:699
2.196;-13.1731;1.7572;0.2721;-9.7705;-0.8363;-0.421;3.2469;-3.7215;0.2916;0.0935;-0.1582;0.001;7.35;71.05;4.9;62.4;80.83;-172.69;0.0;999.71;58.629;35.772808;-78.677895;263.23;NaN;;;70.380646;;0 / 19;50506;2018-03-09 12:04:31:198
1.2405;-2.5118;-1.4299;0.2556;-8.4055;-5.0515;1.833;-7.7309;-3.4429;1.3674;-0.1469;-0.1469;0.001;4.43;65.13;3.22;7.59;58.96;-177.1;0.0;999.52;58.699;35.772808;-78.677895;263.23;NaN;;;70.380646;;0 / 19;51006;2018-03-09 12:04:31:698
-0.6968;-7.615;-4.701;-0.4025;-9.7029;-1.3884;0.8882;-2.5895;3.1294;-0.5125;-0.1496;0.3058;0.001;3.14;64.29;-23.56;8.71;80.74;174.84;0.0;999.47;60.794;35.772808;-78.677895;263.23;NaN;;;70.380646;;0 / 19;51507;2018-03-09 12:04:32:199
-0.092;-23.9962;-2.3836;0.645;-9.76;-0.7496;-5.2863;28.4126;13.319;-0.4666;-1.6346;-1.0818;0.001;-25.6;45.31;-31.47;285.46;84.21;-139.29;0.0;999.88;62.403;35.772808;-78.677895;263.23;NaN;;;70.380646;;0 / 19;52006;2018-03-09 12:04:32:698
-1.9194;-2.4011;1.0322;0.4886;-9.1189;-3.5838;1.2794;-5.8758;-0.1413;1.8126;-1.2518;0.1749;0.001;-32.8;38.68;0.25;287.38;68.36;-172.24;0.0;999.77;57.067;35.772808;-78.677895;263.23;NaN;;;70.380646;;0 / 19;52507;2018-03-09 12:04:33:199
0.1954;-8.2607;-1.0665;-0.5719;-9.7836;-0.4356;-0.8041;-1.8918;0.9031;1.8809;-0.2917;0.9415;0.001;-14.21;32.98;5.8;268.59;75.07;-172.6;0.0;999.72;64.141;35.772808;-78.677895;263.23;NaN;;;70.380646;;0 / 19;53006;2018-03-09 12:04:33:698
-0.3288;-7.4694;3.1789;0.4103;-9.1377;-3.5453;0.6521;-2.2011;-6.4079;0.5133;-3.3355;-1.4801;0.001;-11.27;57.6;12.11;312.73;68.67;-173.4;0.0;999.68;54.437;35.772808;-78.677895;263.23;NaN;;;70.380646;;0 / 19;53507;2018-03-09 12:04:34:199
1.8408;-9.8896;0.2214;-0.313;-9.7584;-0.9546;-0.8038;0.5073;-4.1081;1.0047;-1.1154;0.5673;0.001;-23.58;58.25;23.79;231.97;77.36;-166.09;0.0;999.65;56.714;35.772808;-78.677895;263.23;NaN;;;70.380646;;0 / 19;54006;2018-03-09 12:04:34:698
1.8716;-12.5999;-1.5271;-2.0152;-9.5463;1.0213;-3.6861;3.0221;2.7305;-0.7395;-0.531;0.3945;0.001;-17.01;62.41;24.67;352.22;76.75;45.45;0.0;999.66;50.224;35.772808;-78.677895;263.23;NaN;;;70.380646;;0 / 19;54507;2018-03-09 12:04:35:199
-1.8521;-3.4994;-0.3699;0.2916;-9.5107;-2.3871;-0.4057;-1.0524;-0.6453;1.6444;-0.3982;0.5605;0.001;12.26;43.47;35.72;117.27;62.71;-168.93;0.0;999.64;56.784;35.772808;-78.677895;263.23;NaN;;;70.380646;;0 / 19;55006;2018-03-09 12:04:35:698
3.0986;-9.4895;-3.5172;0.3731;-9.6596;-1.6703;-0.4641;-2.5471;1.698;-0.0915;0.0735;0.573;0.001;3.45;49.75;19.84;127.66;78.65;-156.97;0.0;999.85;55.544;35.772808;-78.677895;263.23;NaN;;;70.380646;;0 / 19;55507;2018-03-09 12:04:36:199
-0.8367;-5.3044;-2.4933;0.1197;-9.5232;-2.3516;-0.9067;-1.0184;1.3943;3.407;0.318;0.0524;0.001;0.74;47.72;14.28;139.5;76.11;-177.08;0.0;999.7;57.049;35.772808;-78.677895;263.23;NaN;;;70.380646;;0 / 19;56007;2018-03-09 12:04:36:699
-0.2344;-8.1875;-3.9475;0.4719;-9.5936;-1.9943;-1.3824;7.1997;-4.2992;-0.8322;0.0098;0.7021;0.001;-0.6;40.98;17.87;160.16;77.94;-166.69;0.0;999.85;55.211;35.772808;-78.677895;263.23;NaN;;;70.380646;;0 / 19;56507;2018-03-09 12:04:37:199
3.4141;-14.3206;0.5428;0.5961;-9.7627;-0.7551;6.2012;3.1826;-2.1477;-0.0907;0.4199;-0.7177;0.001;5.93;48.45;16.18;105.63;84.37;-141.71;0.0;999.85;57.814;35.772808;-78.677895;263.23;NaN;;;70.380646;;0 / 19;57007;2018-03-09 12:04:37:699
0.366;-6.1586;0.0312;0.4014;-8.1042;-5.5133;-0.0987;-4.0576;-5.0021;-0.6211;-0.5284;-0.3125;0.001;6.41;49.71;23.01;38.61;55.7;-175.84;0.0;1000.16;57.816;35.772808;-78.677895;263.23;NaN;;;70.380646;;0 / 19;57507;2018-03-09 12:04:38:199
0.6227;-7.3826;-2.7449;0.242;-9.7608;-0.9513;0.2536;-1.1752;2.4219;0.5527;-0.3964;0.1615;0.001;0.11;59.74;5.16;46.2;84.26;-165.73;0.0;999.7;60.909;35.772808;-78.677895;263.23;NaN;;;70.380646;;0 / 19;58006;2018-03-09 12:04:38:698
-0.5833;-12.052;-4.3604;-0.3616;-9.7464;-1.0554;0.8881;3.6503;-8.4048;1.2699;-1.547;0.0659;0.001;-12.08;54.65;3.04;300.64;83.47;161.09;0.0;999.74;58.149;35.772808;-78.677895;263.23;NaN;;;70.380646;;0 / 19;58506;2018-03-09 12:04:39:198
0.2594;-15.5241;-4.6182;0.1512;-9.5381;-2.2887;1.4938;7.7455;-0.0425;-2.3072;-1.6245;-0.4784;0.001;-15.68;48.87;12.02;265.44;76.48;-176.22;0.0;999.92;60.818;35.772808;-78.677895;263.23;NaN;;;70.380646;;0 / 19;59007;2018-03-09 12:04:39:699
-0.0532;-16.2327;2.1883;0.3612;-9.4754;-2.5145;-1.1336;8.917;-0.7454;-0.3875;-0.8114;-0.3013;0.001;-9.72;43.52;21.75;211.58;74.99;-171.83;0.0;999.98;61.994;35.772808;-78.677895;263.23;NaN;;;70.380646;;0 / 19;59506;2018-03-09 12:04:40:198
-1.1274;-12.1443;-0.7917;-1.7728;-9.5574;-1.323;-4.8081;4.2878;0.7729;-2.7827;-1.7495;-0.5645;0.001;-5.2;48.15;15.1;330.79;77.36;66.08;0.0;999.95;55.844;35.772808;-78.677895;263.23;NaN;;;70.380646;;0 / 19;60006;2018-03-09 12:04:40:698
1.098;-9.1987;-1.923;-0.651;-9.5315;-2.2277;-1.2559;-1.7759;-1.1264;-0.4105;-2.5029;-0.6644;0.001;0.15;41.06;31.21;201.92;77.57;176.36;0.0;999.99;52.576;35.772808;-78.677895;263.23;NaN;;;70.380646;;0 / 19;60507;2018-03-09 12:04:41:199
-0.3432;-9.7498;1.3214;-0.7326;-9.6915;1.332;-0.2203;0.6217;0.1414;0.5305;-0.0411;0.2189;0.001;10.69;47.11;36.54;308.14;84.31;41.84;0.0;999.86;56.018;35.772808;-78.677895;263.23;NaN;;;70.380646;;0 / 19;61006;2018-03-09 12:04:41:698
0.9745;-13.3157;-1.5157;0.3212;-9.1417;-3.5443;0.102;2.8813;-7.9928;-2.6138;-0.0145;-1.7458;0.001;33.34;34.55;28.38;225.14;82.9;89.47;0.0;999.96;49.961;35.772808;-78.677895;263.23;NaN;;;70.380646;;0 / 19;61506;2018-03-09 12:04:42:198
1.9429;-16.6217;-0.8804;0.4116;-9.7155;-1.2942;-0.9134;10.6848;7.0289;0.348;-0.3578;-0.4879;0.001;11.24;48.33;5.96;69.21;79.5;-171.78;0.0;999.82;56.515;35.772808;-78.677895;263.23;NaN;;;70.380646;;0 / 19;62007;2018-03-09 12:04:42:699
1.9688;-9.4947;-4.0819;0.0068;-8.3602;-5.1326;1.4172;6.4871;-3.9606;-2.9287;-0.3598;-0.4391;0.001;10.31;48.37;14.11;129.38;80.2;172.93;0.0;1000.09;53.255;35.772808;-78.677895;263.23;NaN;;;70.380646;;0 / 19;62507;2018-03-09 12:04:43:199
-1.4833;-9.017;-0.1302;0.8766;-9.6855;-1.2876;-4.5913;8.0527;1.1852;-0.0716;0.9436;-0.2863;0.001;11.81;56.13;13.04;134.28;85.47;172.59;0.0;1000.12;60.286;35.772808;-78.677895;263.23;NaN;;;70.380646;;0 / 19;63007;2018-03-09 12:04:43:699
-0.496;-16.8563;-1.6024;-0.0132;-8.6861;-4.5593;-1.1004;5.543;-1.6058;-3.4382;0.1198;-0.2931;0.001;12.02;52.66;27.11;86.66;62.31;179.83;0.0;1000.29;53.681;35.772808;-78.677895;263.23;NaN;;;70.380646;;0 / 19;63506;2018-03-09 12:04:44:198
1.6581;-14.6799;1.5378;0.5279;-9.6774;-1.5183;-2.3123;-1.3181;3.0545;-0.6158;-0.9894;-0.2186;0.001;7.98;57.75;13.17;90.08;80.57;-160.83;0.0;1000.14;57.739;35.772808;-78.677895;263.23;NaN;;;70.380646;;0 / 19;64006;2018-03-09 12:04:44:698
-2.1122;-0.8266;0.0379;0.0279;-8.8385;-4.2563;1.5464;-4.1425;-0.1667;1.713;-0.3935;0.0917;0.001;12.44;57.6;15.59;66.56;59.68;-178.1;0.0;1000.28;57.913;35.772808;-78.677895;263.23;NaN;;;70.380646;;0 / 19;64507;2018-03-09 12:04:45:199
0.424;-7.0561;-1.8532;0.0119;-9.7425;-1.1486;-1.2876;-2.0054;1.1312;0.2102;-0.4094;0.2955;0.001;13.64;58.71;5.64;85.55;83.28;-179.4;0.0;999.93;57.008;35.772808;-78.677895;263.23;NaN;;;70.380646;;0 / 19;65007;2018-03-09 12:04:45:699
-1.0494;-10.6853;-4.629;-0.3493;-9.7713;-0.7969;-0.4573;2.2982;3.7384;1.2179;1.0713;-0.1177;0.001;11.82;54.31;-2.67;36.06;72.04;179.18;0.0;999.9;56.615;35.772808;-78.677895;263.23;NaN;;;70.380646;;0 / 19;65507;2018-03-09 12:04:46:199
-0.1616;-14.0283;-5.5837;-0.1432;-9.5683;-2.1595;-0.5971;4.0395;-5.3271;-1.7352;-1.2879;0.0912;0.001;-2.01;54.7;-3.98;359.47;83.97;-168.91;0.0;1000.16;53.635;35.772808;-78.677895;263.23;NaN;;;70.380646;;0 / 19;66007;2018-03-09 12:04:46:699
0.4729;-8.425;-0.1693;-0.6305;-9.6433;-1.687;5.3159;2.2487;-0.983;0.3625;0.0623;-0.1503;0.001;-13.49;51.85;-4.2;332.56;77.82;155.94;0.0;1000.06;58.32;35.772808;-78.677895;263.23;NaN;;;70.380646;;0 / 19;66507;2018-03-09 12:04:47:199
1.3196;-14.3324;-3.1379;-1.9183;-9.6186;0.1964;-3.548;4.2945;4.6818;-1.4885;-1.4621;0.0612;0.001;-3.76;54.55;-4.83;20.74;78.66;84.15;0.0;1000.18;51.54;35.772808;-78.677895;263.23;NaN;;;70.380646;;0 / 19;67007;2018-03-09 12:04:47:699
2.6709;-10.8581;-3.0503;-0.7761;-9.5549;-2.0828;-3.6772;3.5585;5.8834;-0.3727;-2.8168;-0.2842;0.001;-15.7;57.46;11.92;284.69;75.77;172.25;0.0;1000.12;54.613;35.772808;-78.677895;263.23;NaN;;;70.380646;;0 / 19;67507;2018-03-09 12:04:48:199
0.4259;-10.3771;0.1199;-1.1759;-9.5685;1.8158;-2.1924;0.8947;2.0686;0.7327;-0.2094;0.3794;0.001;-14.27;56.74;10.81;5.39;82.18;44.16;0.0;1000.06;53.694;35.772808;-78.677895;263.23;NaN;;;70.380646;;0 / 19;68007;2018-03-09 12:04:48:699
-2.6741;-0.7167;0.8312;0.4569;-8.4099;-5.03;2.7543;-7.5729;-6.4945;0.3448;-1.2762;-1.0655;0.001;-20.5;36.11;26.59;270.47;62.78;-178.86;0.0;1000.24;50.345;35.772808;-78.677895;263.23;NaN;;;70.380646;;0 / 19;68507;2018-03-09 12:04:49:199
2.9562;-8.4552;-3.5792;0.3298;-9.6748;-1.589;-4.6532;-0.6039;0.5913;0.8817;-0.2581;-0.5649;0.001;11.88;48.14;24.75;149.68;76.96;172.59;0.0;1000.06;60.177;35.772808;-78.677895;263.23;NaN;;;70.380646;;0 / 19;69007;2018-03-09 12:04:49:699
-1.6701;-1.9731;-1.796;-0.0241;-9.3663;-2.9169;1.3315;-8.2088;-6.1967;3.5026;0.057;0.1858;0.001;-16.08;44.35;18.14;306.36;53.42;-178.74;0.0;1000.33;53.218;35.772808;-78.677895;263.23;NaN;;;70.380646;;0 / 19;69506;2018-03-09 12:04:50:198
1.2578;-7.2653;-2.4564;0.193;-9.6783;-1.5905;-1.8464;-0.6938;2.5553;-0.5481;0.6493;0.3258;0.001;2.01;40.41;20.2;137.49;81.41;-155.17;0.0;1000.01;60.958;35.772808;-78.677895;263.23;NaN;;;70.380646;;0 / 19;70007;2018-03-09 12:04:50:699
-0.4804;-10.13;-3.5386;-0.0473;-9.7293;-1.2549;1.2542;-0.4718;3.4932;2.1713;0.9345;0.4645;0.001;6.72;49.51;18.36;151.63;82.65;177.84;0.0;1000.04;59.025;35.772808;-78.677895;263.23;NaN;;;70.380646;;0 / 19;70506;2018-03-09 12:04:51:198
-1.1492;-11.6144;-4.5939;0.4518;-9.3966;-2.7814;-0.3199;4.6374;-3.568;-2.3403;-0.5834;0.0497;0.001;-1.61;48.85;21.92;167.54;73.31;-170.77;0.0;1000.33;57.636;35.772808;-78.677895;263.23;NaN;;;70.380646;;0 / 19;71006;2018-03-09 12:04:51:698
-0.1131;-15.0619;1.8178;0.576;-9.6593;-1.6131;0.3598;6.0881;-4.4003;-0.7727;-1.1104;-0.4422;0.001;-2.98;47.01;15.57;223.67;83.83;168.27;0.0;1000.15;57.374;35.772808;-78.677895;263.23;NaN;;;70.380646;;0 / 19;71506;2018-03-09 12:04:52:198
0.0863;-3.6991;-1.0421;0.4337;-8.5936;-4.7114;1.9117;-5.4607;0.4642;1.5147;0.0981;-0.5416;0.001;-6.02;40.07;21.84;264.5;61.16;-174.74;0.0;1000.36;55.439;35.772808;-78.677895;263.23;NaN;;;70.380646;;0 / 19;72006;2018-03-09 12:04:52:698
4.0619;-8.3107;-3.2095;0.3469;-9.7438;-1.0838;-1.9229;-3.0123;1.2202;0.8815;-0.1859;-0.1453;0.001;-7.3;44.8;13.1;196.39;83.34;-162.25;0.0;1000.21;56.604;35.772808;-78.677895;263.23;NaN;;;70.380646;;0 / 19;72507;2018-03-09 12:04:53:199
-0.5359;-8.3706;-6.2117;-0.6846;-9.6151;-1.8214;-0.4309;-1.1655;4.0314;2.4109;-0.608;0.7875;0.001;-6.09;42.18;28.32;213.74;63.98;-177.08;0.0;1000.33;57.065;35.772808;-78.677895;263.23;NaN;;;70.380646;;0 / 19;73007;2018-03-09 12:04:53:699
0.6704;-9.5017;-1.5515;-1.4221;-9.6604;0.9438;-5.1173;3.899;2.9452;0.7616;0.2025;0.6859;0.001;-1.72;52.2;27.97;319.41;79.98;56.43;0.0;1000.45;58.062;35.772808;-78.677895;263.23;NaN;;;70.380646;;0 / 19;73507;2018-03-09 12:04:54:199
-3.4428;-8.7155;-2.1022;-0.3161;-9.4845;-2.4861;1.1069;2.2308;5.1031;1.1819;-1.8468;-0.8287;0.001;21.57;51.26;23.37;134.47;68.0;170.29;0.0;1000.47;54.807;35.772808;-78.677895;263.23;NaN;;;70.380646;;0 / 19;74006;2018-03-09 12:04:54:698
-1.3797;-8.9531;0.5568;-0.9185;-9.7512;0.5537;0.2808;-0.7946;-0.084;1.3807;-0.8027;0.1089;0.001;15.8;57.31;-4.82;71.0;81.33;152.53;0.0;1000.32;55.325;35.772808;-78.677895;263.23;NaN;;;70.380646;;0 / 19;74507;2018-03-09 12:04:55:199
-1.8325;-11.4596;0.531;-0.7308;-9.2429;-3.2049;1.3335;2.6116;-4.8686;-2.2999;-0.588;-1.0486;0.001;-6.31;60.51;-1.11;78.06;81.9;89.81;0.0;1000.29;50.191;35.772808;-78.677895;263.23;NaN;;;70.380646;;0 / 19;75006;2018-03-09 12:04:55:698
-1.9893;-7.3422;-1.5389;0.43;-9.7019;-1.3874;0.5739;-1.1955;1.5749;0.5316;0.5125;0.1035;0.001;-10.43;49.4;13.97;236.43;77.78;-169.86;0.0;1000.31;53.33;35.772808;-78.677895;263.23;NaN;;;70.380646;;0 / 19;75507;2018-03-09 12:04:56:199
1.8098;-8.5324;-1.3513;0.4159;-9.7768;-0.6911;-1.6038;-1.5176;0.6772;-0.1045;0.0339;0.0526;0.001;-2.58;50.95;21.65;148.91;85.0;-147.19;0.0;1000.34;52.055;35.772808;-78.677895;263.23;NaN;;;70.380646;;0 / 19;76007;2018-03-09 12:04:56:699
-1.0938;-12.3645;-4.9019;-0.1493;-9.7889;-0.6257;1.7424;2.1508;3.7216;1.0089;1.6017;0.1301;0.001;12.63;52.48;15.32;89.61;74.22;-178.28;0.0;1000.28;56.913;35.772808;-78.677895;263.23;NaN;;;70.380646;;0 / 19;76506;2018-03-09 12:04:57:198
-0.0761;-12.8223;-5.4031;0.1843;-9.5577;-2.2028;-0.3966;-1.8528;1.4991;-1.6874;-0.2888;0.1384;0.001;12.92;56.62;14.81;103.9;83.75;-162.65;0.0;1000.46;55.393;35.772808;-78.677895;263.23;NaN;;;70.380646;;0 / 19;77007;2018-03-09 12:04:57:699
-0.0317;-13.1551;-5.4256;0.5216;-9.7396;-1.0507;-2.0929;4.1315;-0.368;-0.3042;0.9299;-0.9115;0.001;11.17;51.93;8.6;43.77;63.78;-178.02;0.0;1000.34;58.778;35.772808;-78.677895;263.23;NaN;;;70.380646;;0 / 19;77506;2018-03-09 12:04:58:198
1.2701;-9.8539;-4.8465;0.2756;-9.6277;-1.862;0.2432;6.9152;-3.7205;-1.034;0.2966;0.1119;0.001;9.49;46.97;17.99;121.83;78.94;-171.58;0.0;1000.43;54.092;35.772808;-78.677895;263.23;NaN;;;70.380646;;0 / 19;78006;2018-03-09 12:04:58:698
0.9416;-11.086;0.0837;0.1554;-9.7674;-0.9003;0.3094;9.4541;4.6648;-0.1311;1.2379;-0.4946;0.001;12.09;47.8;4.43;78.35;84.66;-170.21;0.0;1000.4;58.777;35.772808;-78.677895;263.23;NaN;;;70.380646;;0 / 19;78507;2018-03-09 12:04:59:199
-0.5219;-11.6122;-1.5367;0.4946;-8.2599;-5.2693;1.2073;3.4539;-2.669;-2.1917;-0.838;-0.9651;0.001;6.85;52.93;7.62;18.98;57.35;-174.64;0.0;1000.5;56.762;35.772808;-78.677895;263.23;NaN;;;70.380646;;0 / 19;79006;2018-03-09 12:04:59:698
0.808;-10.2815;1.2494;0.2737;-9.5564;-2.1991;-2.0791;0.5443;3.0289;-0.6188;0.5851;0.6074;0.001;5.7;44.87;-4.84;21.95;84.47;-161.62;0.0;1000.49;54.484;35.772808;-78.677895;263.23;NaN;;;70.380646;;0 / 19;79508;2018-03-09 12:05:00:200
0.1233;-8.4993;-2.1982;0.1602;-8.5076;-4.8816;1.7039;-3.3502;-3.46;-1.2732;-0.2885;-0.5159;0.001;-10.69;40.27;1.7;333.14;73.72;176.32;0.0;1000.69;54.718;35.772808;-78.677895;263.23;NaN;;;70.380646;;0 / 19;80006;2018-03-09 12:05:00:698
0.0959;-17.4155;2.127;0.7976;-9.5732;-1.9886;4.2434;9.3234;3.1257;0.2052;2.2236;-0.8979;0.001;-21.14;19.21;-5.98;295.46;77.1;179.09;0.0;1000.63;52.179;35.772808;-78.677895;263.23;NaN;;;70.380646;;0 / 19;80506;2018-03-09 12:05:01:198
-1.0804;-11.3857;0.1812;-0.0188;-9.4832;-2.5108;2.7182;2.3081;-2.0447;-1.5896;2.4696;1.5031;0.001;6.25;18.59;-14.18;325.9;83.07;-134.09;0.0;1000.74;58.508;35.772808;-78.677895;263.23;NaN;;;70.380646;;0 / 19;81006;2018-03-09 12:05:01:698
0.5735;-8.3556;-4.9835;-0.4582;-9.3641;-2.8879;-0.9537;-2.186;2.123;0.007;1.1062;0.3287;0.001;7.79;20.52;2.79;73.27;72.66;170.98;0.0;1000.76;53.586;35.772808;-78.677895;263.23;NaN;;;70.380646;;0 / 19;81506;2018-03-09 12:05:02:198
1.3692;-9.1174;-0.4648;0.4501;-9.7985;0.1507;-1.1592;-1.0554;0.8016;1.4877;1.4793;0.5219;0.001;0.95;23.85;8.71;58.87;87.23;-71.49;0.0;1000.56;55.826;35.772808;-78.677895;263.23;NaN;;;70.380646;;0 / 19;82007;2018-03-09 12:05:02:699
1.9818;-10.8735;-2.715;1.0196;-8.4456;-4.8854;1.8173;2.0454;-4.9629;-3.3188;-1.1505;-1.9399;0.001;-17.61;28.95;16.37;290.81;85.84;113.57;0.0;1000.49;55.944;35.772808;-78.677895;263.23;NaN;;;70.380646;;0 / 19;82507;2018-03-09 12:05:03:199
1.5475;-10.1341;-0.5162;1.0048;-9.4679;-2.3635;0.8333;-0.4744;-1.4672;2.32;2.021;0.9335;0.001;-27.97;36.61;17.48;230.1;74.82;-156.97;0.0;1000.55;65.94;35.772808;-78.677895;263.23;NaN;;;70.380646;;0 / 19;83007;2018-03-09 12:05:03:699
1.0196;-10.9298;4.1303;0.3472;-8.7294;-4.4624;-1.2591;1.2847;-10.6573;-4.2224;-0.7274;-0.9815;0.001;-25.93;42.45;17.0;12.85;83.79;42.18;0.0;1000.26;57.4;35.772808;-78.677895;263.23;NaN;;;70.380646;;0 / 19;83506;2018-03-09 12:05:04:198
1.4987;-10.1797;-1.0041;0.6613;-9.4043;-2.7126;0.2628;1.2155;-1.7695;2.2878;1.4716;0.8302;0.001;-23.24;39.09;20.84;277.38;56.22;-175.41;0.0;1000.63;61.113;35.772808;-78.677895;263.23;NaN;;;70.380646;;0 / 19;84006;2018-03-09 12:05:04:698
-6.5638;-16.6338;0.1088;0.0642;-9.2115;-3.3733;-1.6371;3.6674;7.3273;-4.6448;-0.2052;-1.515;0.001;-19.0;44.48;11.76;19.31;79.44;49.94;0.0;1000.42;55.036;35.772808;-78.677895;263.23;NaN;;;70.380646;;0 / 19;84507;2018-03-09 12:05:05:199
-2.8306;-6.5664;-7.0043;0.6984;-8.7815;-4.3167;5.1278;0.2167;-0.4168;2.1626;1.317;-0.0604;0.001;-19.0;36.91;30.0;281.33;47.39;174.77;0.0;1001.08;57.949;35.772808;-78.677895;263.23;NaN;;;70.380646;;0 / 19;85006;2018-03-09 12:05:05:698
1.1905;-14.1114;0.5576;-1.5885;-9.5139;1.7887;4.3992;7.3355;3.8078;0.5767;0.2276;0.5907;0.001;-14.09;50.59;3.72;17.79;75.89;41.61;0.0;1000.3;55.835;35.772808;-78.677895;263.23;NaN;;;70.380646;;0 / 19;85507;2018-03-09 12:05:06:199
-0.9735;-2.2268;-3.9131;-1.5197;-6.5882;-7.1079;3.847;0.7534;-4.0315;0.8382;0.2446;-0.0775;0.001;-15.29;41.39;29.62;285.41;43.08;175.0;0.0;1000.55;59.058;35.772808;-78.677895;263.23;NaN;;;70.380646;;0 / 19;86006;2018-03-09 12:05:06:698
0.5313;-10.9103;-2.001;-1.3467;-9.5585;1.7487;-3.7283;4.4441;4.7177;1.3607;0.9091;0.7359;0.001;-9.53;51.5;3.11;16.97;77.0;37.6;0.0;1000.16;55.598;35.772808;-78.677895;263.23;NaN;;;70.380646;;0 / 19;86507;2018-03-09 12:05:07:199
-2.8757;-0.1891;-0.1283;-1.717;-6.115;-7.4762;-0.7674;-2.7499;-0.0305;-1.4495;-1.4597;0.1832;0.001;-4.42;36.41;29.28;252.03;53.27;178.16;0.0;1000.86;56.749;35.772808;-78.677895;263.23;NaN;;;70.380646;;0 / 19;87006;2018-03-09 12:05:07:698
2.9991;-7.7827;-0.8538;-0.006;-9.807;0.2445;-3.0439;-2.3135;3.5002;1.2466;1.5412;1.1001;0.001;-8.0;48.74;8.79;36.75;88.57;1.42;0.0;1000.29;59.505;35.772808;-78.677895;263.23;NaN;;;70.380646;;0 / 19;87506;2018-03-09 12:05:08:198
-8.0306;-8.9163;3.2616;-1.6192;-9.6181;-1.0523;5.2848;-0.1717;-4.3338;-3.104;-1.2721;-0.4361;0.001;-8.9;51.43;2.05;338.1;78.65;123.02;0.0;1000.25;53.731;35.772808;-78.677895;263.23;NaN;;;70.380646;;0 / 19;88006;2018-03-09 12:05:08:698
-7.4579;-9.4024;2.4837;1.3685;-8.9703;-3.7278;6.1189;3.109;-6.5431;0.2768;1.4073;-0.3403;0.001;-37.29;41.89;6.27;304.43;58.46;178.07;0.0;1000.62;55.85;35.772808;-78.677895;263.23;NaN;;;70.380646;;0 / 19;88507;2018-03-09 12:05:09:199
1.822;-13.7349;-1.7908;-0.6561;-9.4743;2.4584;-1.4587;5.0149;0.875;0.5283;0.7787;0.866;0.001;-0.2;36.44;-20.97;206.13;79.24;-25.41;0.0;1000.41;57.943;35.772808;-78.677895;263.23;NaN;;;70.380646;;0 / 19;89006;2018-03-09 12:05:09:698
-3.8227;1.4001;0.2118;-0.8471;-5.8079;-7.8604;3.568;-8.1511;-5.8018;-0.7448;-1.9459;-0.2726;0.001;-6.33;43.35;22.11;250.25;78.26;172.56;0.0;1000.72;56.925;35.772808;-78.677895;263.23;NaN;;;70.380646;;0 / 19;89507;2018-03-09 12:05:10:199
1.3174;-8.5126;-2.0483;-0.9021;-9.7627;0.335;-2.5246;-2.4148;2.9019;1.147;0.4577;0.5985;0.001;0.23;46.93;-0.86;319.06;82.44;-178.16;0.0;1000.13;58.879;35.772808;-78.677895;263.23;NaN;;;70.380646;;0 / 19;90007;2018-03-09 12:05:10:699
-3.7003;-0.409;0.0944;-1.2607;-5.912;-7.7263;0.1877;-3.3316;-7.5869;-1.3759;-1.9002;-0.3459;0.001;-2.66;46.2;28.53;338.88;37.06;170.73;0.0;1000.2;56.932;35.772808;-78.677895;263.23;NaN;;;70.380646;;0 / 19;90508;2018-03-09 12:05:11:200
0.8324;-7.7103;-0.9151;-0.343;-9.8009;0.2449;-1.3643;-2.3794;1.5406;1.5638;0.0694;1.315;0.001;-4.03;54.58;1.03;341.34;77.11;-158.47;0.0;1000.07;59.451;35.772808;-78.677895;263.23;NaN;;;70.380646;;0 / 19;91007;2018-03-09 12:05:11:699
0.1795;-3.7825;-0.5468;-0.3091;-6.9661;-6.9003;-0.9418;-2.8404;-5.3581;-2.8139;-2.4845;-0.8331;0.001;-6.54;55.52;23.27;339.83;66.28;-178.25;0.0;1000.24;54.911;35.772808;-78.677895;263.23;NaN;;;70.380646;;0 / 19;91506;2018-03-09 12:05:12:198
-0.1519;-10.0639;-1.8968;0.2753;-9.7865;-0.62;-3.2426;1.3584;-0.4701;2.2096;1.0914;0.9697;0.001;-10.74;58.63;9.23;323.16;68.0;-167.63;0.0;1000.03;64.411;35.772808;-78.677895;263.23;NaN;;;70.380646;;0 / 19;92006;2018-03-09 12:05:12:698
1.0621;-15.4704;-4.0901;0.2242;-8.0691;-5.5745;0.6323;4.0913;-2.522;-3.7404;-0.6955;-1.1047;0.001;-6.64;58.26;13.99;256.51;81.78;161.55;0.0;999.95;55.177;35.772808;-78.677895;263.23;NaN;;;70.380646;;0 / 19;92507;2018-03-09 12:05:13:199
-1.3527;-9.484;-3.1999;0.3103;-8.5921;-4.724;-2.6221;1.6771;-1.374;2.039;0.8643;0.216;0.001;-4.92;56.54;14.34;344.8;61.15;-176.24;0.0;1000.64;65.635;35.772808;-78.677895;263.23;NaN;;;70.380646;;0 / 19;93007;2018-03-09 12:05:13:699
-4.2733;-15.0402;-3.5139;-1.6955;-9.6211;0.8921;-2.102;6.458;2.6925;-1.3421;0.268;-0.1362;0.001;3.64;53.38;4.77;325.54;78.74;62.25;0.0;999.95;54.89;35.772808;-78.677895;263.23;NaN;;;70.380646;;0 / 19;93506;2018-03-09 12:05:14:198
-0.1124;-14.7505;-8.3022;-0.1968;-7.5263;-6.289;0.2351;4.3373;1.0087;1.5314;2.2974;-0.3626;0.001;4.54;47.94;20.99;358.8;38.93;164.98;0.0;1000.5;57.854;35.772808;-78.677895;263.23;NaN;;;70.380646;;0 / 19;94007;2018-03-09 12:05:14:699
1.6359;-10.4216;-0.8888;-0.531;-9.7908;-0.3061;-2.4381;0.6383;2.0067;-0.1192;0.5953;0.4137;0.001;9.34;50.42;13.58;189.32;88.17;135.77;0.0;1000.17;62.932;35.772808;-78.677895;263.23;NaN;;;70.380646;;0 / 19;94506;2018-03-09 12:05:15:198
-2.5602;-5.874;-0.9461;-1.2855;-9.1011;-3.4284;-0.1102;-1.1406;-1.7426;-1.1109;0.5335;-0.1256;0.001;16.47;45.36;17.52;115.07;68.08;159.45;0.0;1000.08;51.109;35.772808;-78.677895;263.23;NaN;;;70.380646;;0 / 19;95006;2018-03-09 12:05:15:698
1.2097;-10.8;1.4669;0.2586;-9.744;-1.1061;-5.3507;5.1146;-1.7524;0.9627;1.8144;0.6587;0.001;14.29;52.28;16.47;110.0;83.35;-166.84;0.0;1000.13;56.186;35.772808;-78.677895;263.23;NaN;;;70.380646;;0 / 19;95507;2018-03-09 12:05:16:199
-1.6775;-13.0756;-0.3344;-0.8358;-9.7234;0.9963;0.162;1.3678;0.859;-0.9702;1.8362;-0.6252;0.001;11.45;50.4;22.09;314.96;77.39;26.1;0.0;1000.16;54.255;35.772808;-78.677895;263.23;NaN;;;70.380646;;0 / 19;96006;2018-03-09 12:05:16:698
-0.2145;-12.0785;-4.1181;0.5226;-9.4108;-2.7201;-0.6885;-0.7744;7.1742;0.0879;1.4001;0.4456;0.001;2.8;43.24;30.9;177.29;66.43;168.79;0.0;1000.29;56.434;35.772808;-78.677895;263.23;NaN;;;70.380646;;0 / 19;96507;2018-03-09 12:05:17:199
-1.0179;-12.5936;-0.2303;-0.463;-9.6053;1.9391;0.7729;4.4038;0.9597;0.4567;0.5131;0.0754;0.001;-11.02;42.4;19.2;12.18;78.27;13.43;0.0;1000.12;62.205;35.772808;-78.677895;263.23;NaN;;;70.380646;;0 / 19;97006;2018-03-09 12:05:17:698
-1.3915;-0.0824;-2.6189;-0.5161;-6.3132;-7.4909;1.5961;-6.6351;-5.432;0.4757;-1.0523;-0.1796;0.001;-23.16;33.04;36.37;277.09;40.06;176.06;0.0;1000.33;65.813;35.772808;-78.677895;263.23;NaN;;;70.380646;;0 / 19;97507;2018-03-09 12:05:18:199
0.6852;-9.1443;-0.7127;0.6272;-9.7749;0.542;-0.7733;-1.2988;0.0567;1.5074;0.5096;0.4591;0.001;-31.32;46.79;3.48;275.64;62.79;-161.42;0.0;1000.19;58.937;35.772808;-78.677895;263.23;NaN;;;70.380646;;0 / 19;98007;2018-03-09 12:05:18:699
0.6301;-5.278;-0.7832;0.7441;-7.2686;-6.546;-0.7404;-3.1432;-7.9247;-3.5822;-2.3164;-1.395;0.001;-37.89;49.32;29.25;269.38;74.55;-163.75;0.0;999.87;60.24;35.772808;-78.677895;263.23;NaN;;;70.380646;;0 / 19;98507;2018-03-09 12:05:19:199
2.5848;-9.1071;-0.873;0.239;-9.7615;-0.9446;-2.4486;0.157;-0.285;1.7631;0.8757;0.9348;0.001;-45.77;59.25;9.02;276.08;68.56;-168.19;0.0;1000.16;66.005;35.772808;-78.677895;263.23;NaN;;;70.380646;;0 / 19;99007;2018-03-09 12:05:19:699
-0.9669;-12.8385;-3.1678;-0.5802;-8.9066;-4.0709;0.3537;1.2391;-3.6486;-3.0141;-0.9659;-1.0197;0.001;-22.05;60.87;17.55;350.34;81.41;91.42;0.0;999.82;55.951;35.772808;-78.677895;263.23;NaN;;;70.380646;;0 / 19;99506;2018-03-09 12:05:20:198
-3.411;-5.6758;-6.2685;-1.4368;-6.8982;-6.8254;1.7705;3.0402;3.112;1.2383;0.381;-0.2466;0.001;-19.75;44.01;40.72;282.03;44.68;168.11;0.0;1000.47;59.334;35.772808;-78.677895;263.23;NaN;;;70.380646;;0 / 19;100006;2018-03-09 12:05:20:698
0.2346;-6.4586;-1.1529;-0.4796;-9.7704;0.739;-2.6332;5.4125;2.2234;1.8742;0.1081;0.4147;0.001;-24.19;57.84;7.95;32.35;84.85;32.98;0.0;999.75;56.452;35.772808;-78.677895;263.23;NaN;;;70.380646;;0 / 19;100507;2018-03-09 12:05:21:199
-0.7101;-2.2743;1.0292;-0.7233;-6.5995;-7.2222;-0.3228;-6.6702;-4.3332;-1.9759;-2.2875;-0.6171;0.001;-19.82;28.54;24.64;249.76;61.91;176.8;0.0;999.74;56.778;35.772808;-78.677895;263.23;NaN;;;70.380646;;0 / 19;101006;2018-03-09 12:05:21:698
0.2983;-6.4013;-0.1956;-0.1835;-9.7539;1.0311;-1.5728;-2.448;1.1212;1.3879;0.3405;0.5521;0.001;-26.84;27.19;-4.41;261.51;81.85;-163.29;0.0;999.62;59.748;35.772808;-78.677895;263.23;NaN;;;70.380646;;0 / 19;101507;2018-03-09 12:05:22:199
-0.5359;-4.7253;-0.1557;0.3153;-6.6733;-7.1836;0.7707;-2.7521;-7.2327;-2.9493;-1.8014;-1.4153;0.001;-26.14;32.15;37.27;264.22;42.86;-177.49;0.0;999.91;53.917;35.772808;-78.677895;263.23;NaN;;;70.380646;;0 / 19;102006;2018-03-09 12:05:22:698
3.8388;-9.9517;-0.2181;2.0098;-9.5166;-1.277;-0.4886;-1.4287;0.2629;1.5906;2.1982;0.789;0.001;-12.23;38.47;-6.38;282.36;75.95;-122.43;0.0;999.67;58.006;35.772808;-78.677895;263.23;NaN;;;70.380646;;0 / 19;102507;2018-03-09 12:05:23:199
-1.6461;-16.9901;1.0754;-0.0414;-9.8;-0.4412;-1.6561;8.6742;1.478;0.7487;-0.0952;1.2483;0.001;-1.6;27.78;-18.85;334.96;81.48;-135.84;0.0;999.84;56.34;35.772808;-78.677895;263.23;NaN;;;70.380646;;0 / 19;103006;2018-03-09 12:05:23:698
2.6924;-12.4068;3.2775;-1.6037;-9.6718;-0.3465;-4.4416;3.1154;-3.2238;2.6174;6.0264;1.0607;0.001;21.04;42.21;-0.34;72.38;72.12;160.72;0.0;999.71;54.515;35.772808;-78.677895;263.23;NaN;;;70.380646;;0 / 19;103507;2018-03-09 12:05:24:199
0.114;-9.0325;-0.1032;-2.2211;-9.3851;1.7951;-3.1445;-1.613;2.5409;0.3866;-1.1091;0.5416;0.001;13.77;44.91;7.71;296.51;73.08;51.05;0.0;999.96;53.929;35.772808;-78.677895;263.23;NaN;;;70.380646;;0 / 19;104007;2018-03-09 12:05:24:699
0.0726;-7.4521;-0.9424;-0.4291;-6.69;-7.1621;-0.1327;-4.5541;-6.0231;-4.7896;-1.2872;-1.6115;0.001;-10.02;56.54;17.21;18.02;72.7;151.59;0.0;999.92;54.837;35.772808;-78.677895;263.23;NaN;;;70.380646;;0 / 19;104507;2018-03-09 12:05:25:199
1.6618;-13.3308;-0.8863;1.091;-9.2673;-3.0272;-1.0288;4.2977;-3.0511;2.6452;2.8428;0.8669;0.001;-18.83;47.6;18.27;315.31;41.04;176.25;0.0;1000.5;56.405;35.772808;-78.677895;263.23;NaN;;;70.380646;;0 / 19;105007;2018-03-09 12:05:25:699
-1.7781;-14.6016;-0.292;-0.1853;-9.3698;-2.8998;-1.9449;6.806;5.1926;-5.3107;0.079;-0.966;0.001;-7.24;54.47;2.1;14.69;77.39;35.4;0.0;999.82;57.19;35.772808;-78.677895;263.23;NaN;;;70.380646;;0 / 19;105507;2018-03-09 12:05:26:199
-2.491;-8.0871;-2.0002;0.6903;-9.0944;-3.6127;1.9226;5.7351;0.2864;2.2049;0.4171;0.3486;0.001;-13.85;53.7;21.72;318.03;52.16;179.18;0.0;1000.08;58.064;35.772808;-78.677895;263.23;NaN;;;70.380646;;0 / 19;106006;2018-03-09 12:05:26:698
-3.6721;-16.6346;2.5864;-0.6439;-9.7136;-1.211;-3.0323;7.2258;2.9714;-3.8376;-0.4522;-1.2624;0.001;-4.64;59.72;-2.27;16.82;75.26;40.14;0.0;999.86;59.12;35.772808;-78.677895;263.23;NaN;;;70.380646;;0 / 19;106506;2018-03-09 12:05:27:198
-3.9973;-7.5797;-6.0152;0.566;-8.9462;-3.9852;-0.0073;4.8627;1.0139;1.8737;0.9536;0.1148;0.001;-14.37;51.24;24.46;318.43;40.93;170.86;0.0;1000.21;59.269;35.772808;-78.677895;263.23;NaN;;;70.380646;;0 / 19;107006;2018-03-09 12:05:27:698
0.4899;-13.1852;0.8708;-1.6428;-9.482;1.9048;3.801;6.3902;-0.4718;0.298;0.1074;0.475;0.001;-8.83;54.59;-0.74;25.31;75.14;40.78;0.0;999.76;57.736;35.772808;-78.677895;263.23;NaN;;;70.380646;;0 / 19;107507;2018-03-09 12:05:28:199
-0.6569;-1.6896;-4.0535;-1.25;-6.6679;-7.0861;-2.0675;-4.4896;-1.9924;1.0595;0.3132;-0.325;0.001;-5.05;40.31;29.98;314.18;42.82;170.0;0.0;999.89;59.99;35.772808;-78.677895;263.23;NaN;;;70.380646;;0 / 19;108007;2018-03-09 12:05:28:699
0.1847;-9.4991;-1.7875;-1.4218;-9.5628;1.6633;-2.9041;5.4464;-0.5703;1.1808;1.2326;0.8497;0.001;-1.64;48.25;2.82;341.1;87.88;68.65;0.0;999.68;63.134;35.772808;-78.677895;263.23;NaN;;;70.380646;;0 / 19;108507;2018-03-09 12:05:29:199
-1.8484;-3.5605;-0.3403;-1.3225;-6.5092;-7.2192;1.409;-3.9237;-6.2781;-2.4429;-2.0298;-0.6232;0.001;-5.11;38.11;23.08;294.03;60.32;174.77;0.0;999.81;58.396;35.772808;-78.677895;263.23;NaN;;;70.380646;;0 / 19;109006;2018-03-09 12:05:29:698
3.0901;-8.2754;-0.5627;0.011;-9.7951;-0.5409;-2.4086;-2.1067;0.0509;2.292;0.9744;0.8136;0.001;-5.84;43.47;4.57;245.06;86.84;-178.83;0.0;999.46;61.241;35.772808;-78.677895;263.23;NaN;;;70.380646;;0 / 19;109507;2018-03-09 12:05:30:199
2.5674;-11.096;0.0224;-0.4323;-8.391;-5.0637;-0.7434;-3.1266;-7.3353;-3.7765;-2.371;-0.7684;0.001;-7.32;47.07;15.6;321.12;84.24;94.0;0.0;999.59;56.061;35.772808;-78.677895;263.23;NaN;;;70.380646;;0 / 19;110006;2018-03-09 12:05:30:698
-1.6561;-8.1552;-4.1266;-0.1924;-7.8015;-5.9444;0.3876;2.1881;-2.3335;2.2033;1.7841;-0.5177;0.001;-6.16;53.88;11.09;345.26;52.68;178.15;0.0;1000.11;55.973;35.772808;-78.677895;263.23;NaN;;;70.380646;;0 / 19;110506;2018-03-09 12:05:31:198
-0.0842;-11.4824;2.0745;-2.1837;-9.231;2.5011;-2.0517;2.1392;0.1226;0.128;0.7795;0.3395;0.001;17.3;46.4;-12.3;196.38;75.9;38.57;0.0;999.25;60.726;35.772808;-78.677895;263.23;NaN;;;70.380646;;0 / 19;111007;2018-03-09 12:05:31:699
-2.5054;-4.583;-0.1232;0.4628;-9.0493;-3.7593;2.5454;-3.9369;-4.4817;0.9974;-0.3739;-0.6913;0.001;4.71;53.23;22.44;75.18;66.11;-178.25;0.0;999.55;56.787;35.772808;-78.677895;263.23;NaN;;;70.380646;;0 / 19;111506;2018-03-09 12:05:32:198
2.5733;-9.8377;0.1454;1.1395;-9.7056;-0.8601;-1.1936;-0.4404;0.216;0.8854;1.6121;0.243;0.001;-2.52;45.8;19.74;118.22;81.63;-127.05;0.0;999.7;55.997;35.772808;-78.677895;263.23;NaN;;;70.380646;;0 / 19;112006;2018-03-09 12:05:32:698
-0.5589;-9.7616;-0.0534;-0.5967;-9.7912;-0.1082;-0.2671;-0.2328;-0.1684;-0.0985;0.4228;0.4563;0.001;-5.13;43.3;18.26;243.36;89.73;134.7;0.0;999.63;47.925;35.772808;-78.677895;263.23;NaN;;;70.380646;;0 / 19;112507;2018-03-09 12:05:33:199
-1.2861;-8.089;-2.2544;-0.1336;-9.2757;-3.1904;0.3089;-1.249;-1.31;0.2799;-0.8573;-0.4325;0.001;-3.41;37.36;23.2;210.02;70.82;174.22;0.0;999.62;56.214;35.772808;-78.677895;263.23;NaN;;;70.380646;;0 / 19;113006;2018-03-09 12:05:33:698
1.9648;-9.1516;-2.8246;0.36;-9.5136;-2.366;-2.8114;0.5098;0.7303;-0.5193;-0.5373;-0.2177;0.001;-3.97;35.86;19.07;186.11;76.89;-174.32;0.0;999.79;53.137;35.772808;-78.677895;263.23;NaN;;;70.380646;;0 / 19;113507;2018-03-09 12:05:34:199
1.89;-9.6848;-0.757;0.3069;-9.7712;-0.8157;-1.6988;-0.2101;-0.1682;0.4238;-0.2675;0.2595;0.001;-1.37;34.14;15.55;150.34;81.85;-155.59;0.0;999.77;51.047;35.772808;-78.677895;263.23;NaN;;;70.380646;;0 / 19;114006;2018-03-09 12:05:34:698
-0.459;-9.8171;0.0877;-1.974;-9.5233;1.2827;-1.8682;0.065;0.8729;0.1184;-0.5267;0.4444;0.001;4.16;36.67;9.64;310.36;79.46;56.28;0.0;999.8;56.15;35.772808;-78.677895;263.23;NaN;;;70.380646;;0 / 19;114506;2018-03-09 12:05:35:198
-3.7076;-12.0902;-2.2481;-2.0327;-9.5971;-0.0202;2.9322;0.4114;-4.8952;-2.3006;-1.0231;-1.2347;0.001;3.7;30.4;23.62;317.15;68.98;60.16;0.0;999.73;56.85;35.772808;-78.677895;263.23;NaN;;;70.380646;;0 / 19;115007;2018-03-09 12:05:35:699
-2.3519;-10.4749;-4.3246;-0.1877;-9.3395;-2.9957;-0.4181;3.2369;1.4598;-0.1749;-0.0205;0.1523;0.001;7.2;32.88;6.23;78.32;72.18;176.41;0.0;999.82;56.701;35.772808;-78.677895;263.23;NaN;;;70.380646;;0 / 19;115507;2018-03-09 12:05:36:199
1.0721;-9.7701;0.877;-0.5455;-9.6953;1.3929;-3.6548;0.1639;1.9086;0.6982;1.5986;0.4734;0.001;5.09;30.58;5.94;339.66;87.28;-20.53;0.0;999.63;52.809;35.772808;-78.677895;263.23;NaN;;;70.380646;;0 / 19;116006;2018-03-09 12:05:36:698
-1.531;-6.9631;-2.1532;-0.1121;-9.004;-3.8924;1.5532;-1.8774;1.7691;0.5313;0.8785;-0.3746;0.001;4.01;29.81;13.71;101.45;66.83;173.28;0.0;999.6;54.569;35.772808;-78.677895;263.23;NaN;;;70.380646;;0 / 19;116506;2018-03-09 12:05:37:198
2.1324;-9.1612;0.08;0.6753;-9.7055;1.2581;-3.3389;-0.8928;0.7259;1.0689;3.0819;0.1507;0.001;0.23;30.79;11.88;115.02;82.35;-133.52;0.0;999.63;55.371;35.772808;-78.677895;263.23;NaN;;;70.380646;;0 / 19;117007;2018-03-09 12:05:37:699
2.1634;-10.5036;-3.0629;0.3451;-9.002;-3.8835;-1.5463;2.5884;0.2683;-2.44;1.9445;-0.1383;0.001;-3.62;30.91;17.02;214.99;66.58;-174.92;0.0;999.49;50.72;35.772808;-78.677895;263.23;NaN;;;70.380646;;0 / 19;117506;2018-03-09 12:05:38:198
1.778;-10.1514;2.2027;1.0027;-9.4781;-2.323;-1.7562;1.7693;-3.1349;0.9372;1.5271;0.055;0.001;-4.72;35.58;12.87;237.21;70.43;-165.26;0.0;999.65;57.001;35.772808;-78.677895;263.23;NaN;;;70.380646;;0 / 19;118007;2018-03-09 12:05:38:699
1.6392;-9.6712;-1.967;-1.0427;-9.7482;-0.3493;-0.2054;0.9005;0.4851;-2.1789;-0.9799;-0.3546;0.001;1.68;42.26;5.95;280.42;83.56;108.52;0.0;999.75;54.301;35.772808;-78.677895;263.23;NaN;;;70.380646;;0 / 19;118506;2018-03-09 12:05:39:198
-1.5159;-5.0445;-2.1967;0.4251;-9.2998;-3.0933;1.8284;-3.5705;0.0092;-0.885;-0.714;-0.4386;0.001;-5.77;51.5;19.36;234.59;71.44;-172.17;0.0;999.66;59.511;35.772808;-78.677895;263.23;NaN;;;70.380646;;0 / 19;119007;2018-03-09 12:05:39:699
2.5659;-11.2901;0.3234;-1.629;-9.501;1.8201;-5.2232;1.6615;1.2371;0.1931;0.6252;0.5621;0.001;-3.55;56.86;8.14;3.35;81.53;20.11;0.0;999.73;57.686;35.772808;-78.677895;263.23;NaN;;;70.380646;;0 / 19;119506;2018-03-09 12:05:40:198
-2.9878;-13.5011;-8.0533;0.4953;-9.569;-2.1035;-0.059;15.5489;17.2815;2.2504;0.1171;0.001;0.001;-2.22;43.68;24.08;165.29;77.27;-166.75;0.0;999.6;58.078;35.772808;-78.677895;263.23;NaN;;;70.380646;;0 / 19;120007;2018-03-09 12:05:40:699
2.1231;-9.887;-0.1117;-1.0691;-9.583;1.8051;-1.5043;-0.1544;2.3753;0.8215;1.8681;1.0637;0.001;-0.52;42.38;8.72;21.26;86.38;-20.97;0.0;999.78;56.479;35.772808;-78.677895;263.23;NaN;;;70.380646;;0 / 19;120506;2018-03-09 12:05:41:198
-3.3155;-1.7198;2.0553;0.0937;-8.9972;-3.9086;1.77;-7.1019;-6.7441;0.5012;-1.6776;-0.5416;0.001;6.73;44.3;13.85;202.91;81.77;137.92;0.0;999.53;57.125;35.772808;-78.677895;263.23;NaN;;;70.380646;;0 / 19;121006;2018-03-09 12:05:41:698
-0.5718;-10.8448;0.7079;-0.9153;-9.7329;0.8176;1.7412;-0.5667;0.4485;1.1861;1.8083;0.4865;0.001;9.54;56.09;2.29;90.87;84.68;159.69;0.0;999.57;57.326;35.772808;-78.677895;263.23;NaN;;;70.380646;;0 / 19;121507;2018-03-09 12:05:42:199
-1.9513;-13.8029;-0.7533;0.2594;-8.9123;-4.0915;-0.4352;-3.5137;-4.1859;-1.1833;-1.5042;-1.2093;0.001;5.68;56.08;27.89;197.72;75.7;159.18;0.0;999.66;55.0;35.772808;-78.677895;263.23;NaN;;;70.380646;;0 / 19;122007;2018-03-09 12:05:42:699
-3.6337;-8.8394;3.5405;0.3123;-9.4632;-2.5664;-2.3677;2.6278;-3.5482;0.9254;0.3834;-0.1032;0.001;-0.3;48.2;38.16;168.88;70.22;-179.78;0.0;999.76;57.608;35.772808;-78.677895;263.23;NaN;;;70.380646;;0 / 19;122506;2018-03-09 12:05:43:198
2.6317;-11.0894;-2.9436;-1.5065;-9.6679;0.7059;0.0142;1.1349;3.0021;-1.6195;-0.3308;-0.733;0.001;-0.48;38.5;44.61;301.97;80.24;64.89;0.0;999.64;55.69;35.772808;-78.677895;263.23;NaN;;;70.380646;;0 / 19;123007;2018-03-09 12:05:43:699
-4.1741;-5.7692;-0.4242;-0.1863;-9.2225;-3.3388;-0.7661;1.378;-8.9726;-0.3918;-0.8332;0.0758;0.001;18.2;25.43;42.44;153.85;70.07;176.81;0.0;999.69;56.914;35.772808;-78.677895;263.23;NaN;;;70.380646;;0 / 19;123506;2018-03-09 12:05:44:198
3.3213;-13.6754;-0.3562;-2.3665;-9.3958;1.5343;-5.8201;2.3051;3.2824;-0.1783;0.871;0.2669;0.001;12.93;34.13;38.73;296.28;73.29;57.04;0.0;999.66;53.824;35.772808;-78.677895;263.23;NaN;;;70.380646;;0 / 19;124007;2018-03-09 12:05:44:699
6.1767;-24.6106;-12.7615;0.2311;-9.39;-2.8303;2.5952;-4.2414;-0.5128;-0.3011;-0.1114;0.1449;0.001;17.37;38.08;22.26;114.18;66.48;-175.63;0.0;999.6;60.505;35.772808;-78.677895;263.23;NaN;;;70.380646;;0 / 19;124507;2018-03-09 12:05:45:199
2.3288;-11.7865;-0.395;-2.0783;-9.3385;2.1702;-5.1563;2.3629;2.1809;0.8077;1.2861;0.9348;0.001;10.4;41.76;10.79;313.03;72.16;43.76;0.0;999.84;54.978;35.772808;-78.677895;263.23;NaN;;;70.380646;;0 / 19;125006;2018-03-09 12:05:45:698
-3.8312;-3.4707;-1.2083;0.0539;-9.3085;-3.0961;-10.006;25.0616;5.7766;1.4322;-0.6928;-0.5186;0.001;-0.37;60.64;22.94;21.87;65.75;-175.86;0.0;999.66;59.216;35.772808;-78.677895;263.23;NaN;;;70.380646;;0 / 19;125507;2018-03-09 12:05:46:199
0.6582;-9.4641;-0.419;-1.411;-9.589;1.5155;-4.603;0.0462;-0.1694;0.9364;1.6751;0.968;0.001;-4.25;80.69;14.72;346.55;77.81;42.95;0.0;999.68;59.53;35.772808;-78.677895;263.23;NaN;;;70.380646;;0 / 19;126006;2018-03-09 12:05:46:698
-2.6585;-0.741;1.099;0.1081;-8.9102;-4.1028;2.6551;-7.9346;-5.0887;0.0637;-2.2227;-0.7561;0.001;-3.55;44.98;49.61;185.74;65.27;-178.49;0.0;999.55;56.623;35.772808;-78.677895;263.23;NaN;;;70.380646;;0 / 19;126507;2018-03-09 12:05:47:199
1.7624;-9.3461;-0.6779;-0.6907;-9.7548;0.7769;0.2533;-2.0652;0.0487;1.3754;1.867;0.6355;0.001;-1.67;51.99;31.44;173.89;83.37;-171.42;0.0;999.86;59.041;35.772808;-78.677895;263.23;NaN;;;70.380646;;0 / 19;127006;2018-03-09 12:05:47:698
-0.985;-4.2429;1.6556;0.1779;-8.8623;-4.2028;2.1138;-6.0081;-5.3222;-1.3338;-2.8073;-1.4577;0.001;-0.36;41.11;36.82;207.58;74.73;161.08;0.0;999.54;54.965;35.772808;-78.677895;263.23;NaN;;;70.380646;;0 / 19;127507;2018-03-09 12:05:48:199
1.0777;-7.0554;0.6373;-0.1944;-9.8028;0.323;-1.422;-3.3815;-0.6153;1.8156;1.1413;0.7566;0.001;3.18;39.64;23.37;323.75;87.8;31.05;0.0;999.71;60.866;35.772808;-78.677895;263.23;NaN;;;70.380646;;0 / 19;128006;2018-03-09 12:05:48:698
0.9723;-7.9978;1.2161;0.0743;-9.1794;-3.4598;-1.5983;4.0061;-1.0162;-1.9241;-0.9985;-1.5982;0.001;9.59;33.36;18.13;228.22;79.67;115.69;0.0;999.35;53.453;35.772808;-78.677895;263.23;NaN;;;70.380646;;0 / 19;128507;2018-03-09 12:05:49:199
-4.7682;-11.7056;1.5005;-0.2473;-9.799;-0.3924;2.987;-3.1999;-9.2433;1.8653;1.7335;0.6331;0.001;6.85;48.08;7.05;46.94;73.97;-178.43;0.0;999.84;60.561;35.772808;-78.677895;263.23;NaN;;;70.380646;;0 / 19;129007;2018-03-09 12:05:49:699
-0.4516;-12.3807;-2.8512;-0.3895;-9.4103;-2.7441;-1.8257;4.2293;-0.4868;-2.1163;0.2146;-1.6734;0.001;9.59;52.12;11.99;306.86;72.11;54.37;0.0;999.53;49.97;35.772808;-78.677895;263.23;NaN;;;70.380646;;0 / 19;129507;2018-03-09 12:05:50:199
-2.6452;-15.1638;0.6115;-0.1005;-9.3637;-2.9237;2.2506;-2.3648;-12.2081;0.1554;0.5474;-0.0862;0.001;8.87;42.84;34.32;158.54;72.65;178.03;0.0;999.77;59.682;35.772808;-78.677895;263.23;NaN;;;70.380646;;0 / 19;130007;2018-03-09 12:05:50:699
3.7134;-13.0289;-2.3467;-2.7188;-9.3468;1.2173;-6.1858;1.6435;2.8538;-0.3999;0.7731;0.2447;0.001;4.24;39.66;29.41;315.05;74.04;52.88;0.0;999.51;53.21;35.772808;-78.677895;263.23;NaN;;;70.380646;;0 / 19;130506;2018-03-09 12:05:51:198
0.0693;-6.2325;-1.7484;-0.3654;-9.3274;-3.0168;2.2169;-7.3655;-1.1694;-1.2981;-1.9535;-0.7054;0.001;17.1;48.32;19.29;108.95;71.95;173.09;0.0;999.56;62.456;35.772808;-78.677895;263.23;NaN;;;70.380646;;0 / 19;131006;2018-03-09 12:05:51:698
1.9844;-11.7512;0.8807;-2.8385;-9.2363;1.694;-6.197;3.1778;4.5619;0.0895;0.6476;0.605;0.001;21.25;50.96;12.94;286.46;70.31;59.17;0.0;999.55;54.944;35.772808;-78.677895;263.23;NaN;;;70.380646;;0 / 19;131507;2018-03-09 12:05:52:199
5.7073;-25.2412;-14.6895;-0.5592;-9.4633;-2.5236;-0.6729;-1.7887;2.2561;1.7688;0.8624;0.43;0.001;14.44;59.65;27.01;148.03;74.72;167.51;0.0;999.37;58.69;35.772808;-78.677895;263.23;NaN;;;70.380646;;0 / 19;132006;2018-03-09 12:05:52:698
2.4764;-10.6301;0.354;-2.4731;-9.358;1.5964;-5.6502;1.454;1.0884;0.8347;0.7474;1.176;0.001;13.56;67.79;18.25;290.55;82.57;61.49;0.0;999.69;62.081;35.772808;-78.677895;263.23;NaN;;;70.380646;;0 / 19;132507;2018-03-09 12:05:53:199
-3.6244;-0.8208;1.8041;-0.2454;-9.0841;-3.6952;3.1384;-6.8127;-5.0691;0.8043;-1.0866;-0.2356;0.001;3.97;53.44;46.99;177.88;67.82;176.2;0.0;999.47;57.258;35.772808;-78.677895;263.23;NaN;;;70.380646;;0 / 19;133006;2018-03-09 12:05:53:698
0.7059;-8.5648;-0.7245;-1.4145;-9.6389;1.1518;-3.6412;-0.263;0.6997;1.0367;1.6245;0.7599;0.001;-5.96;62.42;28.75;272.23;86.74;102.59;0.0;999.76;63.031;35.772808;-78.677895;263.23;NaN;;;70.380646;;0 / 19;133507;2018-03-09 12:05:54:199
-1.9734;-2.6754;0.9978;0.1553;-8.8382;-4.2541;2.3233;-6.3219;-5.3748;-0.6255;-1.9409;-0.8345;0.001;-5.01;42.01;36.5;206.09;72.24;171.46;0.0;999.5;55.499;35.772808;-78.677895;263.23;NaN;;;70.380646;;0 / 19;134006;2018-03-09 12:05:54:698
1.4887;-8.9211;1.2896;-0.9371;-9.7262;0.8716;-1.9074;-2.6518;-1.2553;1.471;1.7321;0.5174;0.001;-0.1;52.92;7.04;224.7;75.49;178.3;0.0;999.7;61.213;35.772808;-78.677895;263.23;NaN;;;70.380646;;0 / 19;134507;2018-03-09 12:05:55:199
0.7607;-6.2891;1.386;-0.2069;-9.1126;-3.6267;0.5809;-6.2074;-5.8613;-1.7951;-1.8572;-1.2862;0.001;-4.08;64.72;15.31;334.94;68.27;176.73;0.0;999.58;51.482;35.772808;-78.677895;263.23;NaN;;;70.380646;;0 / 19;135007;2018-03-09 12:05:55:699
2.233;-11.3298;0.0268;-0.6437;-9.7671;-0.6527;-2.4698;-0.0099;-0.2207;1.7409;1.3208;0.6234;0.001;-10.18;69.92;12.37;304.65;74.97;172.27;0.0;999.72;58.411;35.772808;-78.677895;263.23;NaN;;;70.380646;;0 / 19;135506;2018-03-09 12:05:56:198
-0.3058;-12.4884;-2.1517;-0.9261;-9.4769;-2.3596;1.7719;5.0933;-0.9725;-2.1394;0.3247;-1.654;0.001;-0.76;78.65;12.79;353.73;70.38;62.91;0.0;999.64;54.033;35.772808;-78.677895;263.23;NaN;;;70.380646;;0 / 19;136006;2018-03-09 12:05:56:698
-3.4051;-9.3535;1.5027;-0.3838;-9.7163;-1.2968;5.9202;-0.9278;-1.8468;1.7543;2.0715;0.442;0.001;-16.1;80.04;33.53;234.36;74.83;170.51;0.0;999.58;59.709;35.772808;-78.677895;263.23;NaN;;;70.380646;;0 / 19;136506;2018-03-09 12:05:57:198
2.6121;-13.45;-1.3295;-1.9806;-9.5221;-1.2819;3.726;7.2005;-7.2899;-0.3009;0.8167;0.263;0.001;-6.35;80.68;8.45;351.39;71.16;68.12;0.0;999.55;52.066;35.772808;-78.677895;263.23;NaN;;;70.380646;;0 / 19;137007;2018-03-09 12:05:57:699
3.686;-16.6441;-7.6861;-0.3514;-9.4342;-2.6661;3.5208;11.328;-1.2354;-0.8434;-0.2739;-0.2215;0.001;-8.26;70.32;16.85;307.14;68.52;174.38;0.0;999.61;58.405;35.772766;-78.67771;263.55;340.2510969738746;;;69.37097;;0 / 19;137507;2018-03-09 12:05:58:199
0.6519;-10.5386;0.3607;-2.4116;-9.3656;1.6449;-5.9121;1.1825;-0.1604;0.6764;0.9539;0.8228;0.001;10.47;74.02;-6.61;15.35;80.47;49.13;0.0;999.66;58.16;35.772766;-78.67771;263.55;340.2510969738746;;;69.37097;;0 / 19;138007;2018-03-09 12:05:58:699
-2.6375;-3.8587;-0.5561;-0.3009;-9.3872;-2.8329;2.3988;-5.1435;-1.7221;1.5968;-0.9102;-0.222;0.001;-5.44;84.6;24.54;280.42;73.12;173.94;0.0;999.6;56.769;35.772766;-78.67771;263.55;340.2510969738746;;;69.37097;;0 / 19;138506;2018-03-09 12:05:59:198
2.6044;-9.0067;-0.7164;-1.339;-9.6811;0.8479;-3.3422;0.4864;0.5911;0.9241;1.6684;0.6705;0.001;-6.52;86.09;13.17;294.44;86.07;115.14;0.0;999.57;58.344;35.772766;-78.67771;263.55;340.2510969738746;;;69.37097;;0 / 19;139007;2018-03-09 12:05:59:699
-0.4031;-6.1667;0.9923;-0.1976;-9.0499;-3.781;2.6006;-4.8053;-4.558;-1.2746;-2.2887;-1.3056;0.001;-4.33;55.41;45.2;197.57;67.3;177.01;0.0;999.38;54.905;35.772766;-78.67771;263.55;340.2510969738746;;;69.37097;;0 / 19;139506;2018-03-09 12:06:00:198
-0.1653;-8.7836;0.7348;-0.8456;-9.7712;-0.2107;-0.7996;-2.0442;-1.1385;1.3982;1.3704;0.6595;0.001;4.44;66.02;23.3;185.18;77.55;168.23;0.0;999.65;56.215;35.772766;-78.67771;263.55;340.2510969738746;;;69.37097;;0 / 19;140006;2018-03-09 12:06:00:698
-0.3506;-12.0807;-1.837;-1.1174;-9.4641;-2.3279;-0.2105;3.5702;0.7254;-2.2708;-0.2764;-1.1762;0.001;2.81;74.36;32.87;227.86;74.74;154.36;0.0;999.41;51.102;35.772766;-78.67771;263.55;340.2510969738746;;;69.37097;;0 / 19;140507;2018-03-09 12:06:01:199
-0.9095;-9.0501;4.6412;-0.3286;-9.6047;-1.9694;-0.5602;2.304;-2.0391;1.2583;1.0133;0.1316;0.001;-8.14;74.91;39.57;208.93;72.74;172.11;0.0;999.75;56.76;35.772766;-78.67771;263.55;340.2510969738746;;;69.37097;;0 / 19;141006;2018-03-09 12:06:01:698
4.3578;-11.8678;-2.042;-2.5735;-9.4597;0.3576;-6.3368;1.9985;2.6584;-0.982;-0.3951;-0.0983;0.001;-5.97;78.14;24.17;330.34;74.24;68.09;0.0;999.6;52.38;35.772766;-78.67771;263.55;340.2510969738746;;;69.37097;;0 / 19;141507;2018-03-09 12:06:02:199
-1.3357;-4.2013;-2.8734;-0.2793;-9.3827;-2.8501;-1.638;1.4193;2.558;-0.7905;-1.6744;-0.5618;0.001;2.9;64.47;40.95;183.61;73.85;173.91;0.0;999.44;56.05;35.772766;-78.67771;263.55;340.2510969738746;;;69.37097;;0 / 19;142006;2018-03-09 12:06:02:698
0.5576;-11.1243;0.6901;-2.6583;-9.2711;1.7932;-5.829;0.8767;1.3747;0.2623;0.645;0.6046;0.001;6.79;78.28;12.82;331.34;70.92;56.0;0.0;999.68;56.299;35.772766;-78.67771;263.55;340.2510969738746;;;69.37097;;0 / 19;142506;2018-03-09 12:06:03:198
3.3738;-20.0184;-12.2263;-0.5463;-9.5756;-2.0607;-8.3982;20.3663;16.4838;2.2433;-0.1367;0.2458;0.001;1.57;69.44;44.83;179.14;66.1;177.71;0.0;999.45;57.567;35.772766;-78.67771;263.55;340.2510969738746;;;69.37097;;0 / 19;143007;2018-03-09 12:06:03:699
2.766;-10.2334;0.1402;-2.2967;-9.383;1.7089;-3.7026;-0.4609;2.0796;0.9393;0.9874;1.171;0.001;1.55;84.66;28.7;196.48;83.92;168.17;0.0;999.69;60.232;35.772766;-78.67771;263.55;340.2510969738746;;;69.37097;;0 / 19;143507;2018-03-09 12:06:04:199
0.4385;-6.7333;1.7122;-0.1624;-9.1815;-3.451;2.2271;-5.3261;-5.7347;0.7331;-1.0663;-0.5014;0.001;9.25;36.25;53.87;176.6;69.63;178.41;0.0;999.44;57.667;35.772766;-78.67771;263.55;340.2510969738746;;;69.37097;;0 / 19;144006;2018-03-09 12:06:04:698
0.8554;-10.0355;0.4889;-1.2986;-9.6624;1.0901;-0.7692;-2.441;-0.9376;1.5869;1.5355;0.5478;0.001;8.18;24.19;38.56;230.5;87.05;119.32;0.0;999.63;59.081;35.772766;-78.67771;263.55;340.2510969738746;;;69.37097;;0 / 19;144507;2018-03-09 12:06:05:199
-2.3389;-13.6614;1.1699;-1.162;-9.6649;-1.2147;0.1986;-1.8673;-4.1897;-2.3752;-1.2441;-1.2025;0.001;27.56;27.43;20.15;261.47;72.4;63.92;0.0;999.62;53.283;35.772766;-78.67771;263.55;340.2510969738746;;;69.37097;;0 / 19;145007;2018-03-09 12:06:05:699
-3.7812;-8.2883;2.1421;-0.0098;-9.1772;-3.4663;0.898;0.8444;-5.1391;0.1506;1.4938;-0.562;0.001;30.56;40.87;17.51;92.34;70.04;172.78;0.0;999.91;56.773;35.772766;-78.67771;263.55;340.2510969738746;;;69.37097;;0 / 19;145507;2018-03-09 12:06:06:199
1.3562;-10.3334;-0.7378;-0.1938;-9.7541;-1.0281;-0.7716;1.481;0.3642;-0.3769;1.3077;0.4462;0.001;-2.35;33.38;51.25;193.95;83.88;169.33;0.0;999.75;52.624;35.772766;-78.67771;263.55;340.2510969738746;;;69.37097;;0 / 19;146006;2018-03-09 12:06:06:698
-0.2563;-9.9594;-0.9409;0.1958;-9.6889;-1.5243;0.8534;4.5859;-0.2249;0.4999;1.0502;0.1216;0.001;-19.03;34.44;60.57;191.03;80.99;-172.68;0.0;999.54;54.975;35.772766;-78.67771;263.55;340.2510969738746;;;69.37097;;0 / 19;146507;2018-03-09 12:06:07:199
0.7133;-9.8506;0.7071;-0.7408;-9.7567;0.7035;-1.0277;0.0587;-0.09;0.3364;0.8246;0.3103;0.001;-27.93;46.07;50.48;333.77;87.45;52.73;0.0;999.65;51.021;35.772766;-78.67771;263.55;340.2510969738746;;;69.37097;;0 / 19;147007;2018-03-09 12:06:07:699
-2.4074;-14.0526;-3.2646;0.1804;-9.5543;-2.2179;2.583;2.132;1.6721;-1.5559;0.5447;-2.1311;0.001;-10.17;27.17;4.31;260.39;78.58;95.3;0.0;999.59;49.208;35.772766;-78.67771;263.55;340.2510969738746;;;69.37097;;0 / 19;147507;2018-03-09 12:06:08:199
-1.3424;-12.3255;-1.9596;0.5925;-8.8939;-4.0967;-0.4058;-1.6371;-6.3391;-0.3014;0.372;0.1156;0.001;-9.37;34.05;46.95;176.06;66.51;-166.45;0.0;999.7;54.216;35.772766;-78.67771;263.55;340.2510969738746;;;69.37097;;0 / 19;148006;2018-03-09 12:06:08:698
1.0781;-9.3498;0.8401;-0.3586;-9.6465;-1.7471;-2.3566;4.6969;0.4254;0.1549;-1.3762;0.2016;0.001;-3.32;46.76;45.83;184.01;74.1;-172.7;0.0;999.46;54.193;35.772766;-78.67771;263.55;340.2510969738746;;;69.37097;;0 / 19;148507;2018-03-09 12:06:09:199
-1.7962;-8.8946;-1.9489;-2.1686;-9.4462;-1.5171;-1.0467;-1.7748;-0.7415;-0.1673;-1.124;0.1203;0.001;30.05;48.01;28.24;174.22;71.08;151.28;0.0;999.43;53.919;35.772766;-78.67771;263.55;340.2510969738746;;;69.37097;;0 / 19;149006;2018-03-09 12:06:09:698
-0.5566;-9.8175;-0.5812;-1.7121;-9.6407;-0.6007;-1.4786;0.3478;-0.1332;0.1514;-0.1216;0.032;0.001;31.82;49.4;21.26;182.68;77.83;124.69;0.0;999.58;56.018;35.772766;-78.67771;263.55;340.2510969738746;;;69.37097;;0 / 19;149506;2018-03-09 12:06:10:198
-2.0974;-9.7153;-0.6137;-2.2061;-9.5428;-0.5508;-0.4418;0.156;0.0625;-0.1017;0.1192;0.0549;0.001;34.68;49.57;17.79;204.94;77.32;99.6;0.0;999.61;49.867;35.772766;-78.67771;263.55;340.2510969738746;;;69.37097;;0 / 19;150007;2018-03-09 12:06:10:699
-1.774;-9.47;-1.1655;-2.2286;-9.5099;-0.9119;-0.5522;0.0069;0.2987;-0.4906;-0.2656;-0.2053;0.001;35.42;47.58;17.96;199.5;75.45;104.19;0.0;999.59;40.749;35.772766;-78.67771;263.55;340.2510969738746;;;69.37097;;0 / 19;150506;2018-03-09 12:06:11:198
-0.3539;-7.5294;-5.5088;-1.511;-9.0231;-3.5407;-1.4102;-1.4854;1.4522;-0.2453;1.2187;-0.1672;0.001;31.46;43.87;30.56;150.78;69.03;143.0;0.0;999.71;56.409;35.772766;-78.67771;263.55;340.2510969738746;;;69.37097;;0 / 19;151007;2018-03-09 12:06:11:699
0.6364;-8.6446;-0.0138;-0.5308;-9.756;0.8804;-1.8315;0.0101;0.299;0.7992;2.0489;0.2444;0.001;14.24;52.86;37.2;155.76;74.61;170.38;0.0;999.59;60.648;35.772766;-78.67771;263.55;340.2510969738746;;;69.37097;;0 / 19;151506;2018-03-09 12:06:12:198
-0.9266;-8.7019;-0.9505;-0.5883;-8.857;-4.1766;-0.9913;1.2274;-3.8909;-2.3418;2.061;-0.4665;0.001;3.88;25.97;51.13;185.16;64.54;171.98;0.0;999.42;59.271;35.772766;-78.67771;263.55;340.2510969738746;;;69.37097;;0 / 19;152007;2018-03-09 12:06:12:699
0.9068;-9.559;-1.9788;0.581;-9.3776;-2.8213;-0.5622;-1.3094;0.8159;0.2877;0.2376;0.214;0.001;-0.98;32.06;45.73;166.23;72.92;-168.36;0.0;999.63;55.729;35.772766;-78.67771;263.55;340.2510969738746;;;69.37097;;0 / 19;152506;2018-03-09 12:06:13:198
1.0673;-4.8988;-0.3204;-0.5732;-7.4679;-6.3354;1.1857;-8.1633;-5.1028;-1.2992;-0.3324;-0.5689;0.001;4.16;19.45;40.93;179.13;49.57;174.83;0.0;999.56;54.176;35.772766;-78.67771;263.55;340.2510969738746;;;69.37097;;0 / 19;153006;2018-03-09 12:06:13:698
1.3581;-8.9244;-4.1806;-0.4132;-9.5854;-2.0458;0.0726;-1.4609;2.5974;0.4931;-0.78;0.0655;0.001;2.84;41.56;22.59;186.73;77.72;168.58;0.0;999.57;58.47;35.772766;-78.67771;263.55;340.2510969738746;;;69.37097;;0 / 19;153506;2018-03-09 12:06:14:198
-0.0032;-14.4545;-1.8503;-0.2003;-9.6904;-1.5142;-1.0839;7.7151;-1.0244;-0.0821;-0.1922;-0.6255;0.001;-4.12;39.73;10.23;240.0;81.04;172.47;0.0;999.55;59.198;35.772766;-78.67771;263.55;340.2510969738746;;;69.37097;;0 / 19;154007;2018-03-09 12:06:14:699
-1.3313;-5.7585;-3.481;-0.3413;-9.2963;-3.1144;-1.0302;0.876;1.8413;4.0533;0.4765;0.4317;0.001;-27.35;42.09;10.94;295.81;49.84;174.69;0.0;999.8;56.611;35.772766;-78.67771;263.55;340.2510969738746;;;69.37097;;0 / 19;154506;2018-03-09 12:06:15:198
-0.2374;-10.326;-0.2162;0.1595;-7.748;-6.0149;-0.7084;-0.912;-3.4445;-1.0886;0.1759;-1.3919;0.001;-26.31;33.49;26.17;250.3;68.89;169.35;0.0;999.84;59.473;35.772766;-78.67771;263.55;340.2510969738746;;;69.37097;;0 / 19;155006;2018-03-09 12:06:15:698
-0.3373;-8.8869;-2.9499;-0.3269;-8.8985;-4.1164;-0.1071;0.2246;1.9121;-3.0148;0.5444;0.4418;0.001;-6.14;37.56;29.28;220.19;65.11;175.46;0.0;999.57;58.834;35.772766;-78.67771;263.55;340.2510969738746;;;69.37097;;0 / 19;155506;2018-03-09 12:06:16:198
-3.8308;-9.3211;2.1277;0.2035;-9.5915;-2.0489;2.2127;2.4707;-5.5305;-0.1853;0.8716;1.1741;0.001;-11.58;58.44;11.61;266.48;77.88;-174.33;0.0;999.45;60.575;35.772766;-78.67771;263.55;340.2510969738746;;;69.37097;;0 / 19;156007;2018-03-09 12:06:16:699
-0.1786;-6.3288;-7.5842;-1.1819;-6.6917;-7.0753;-0.9214;-0.8643;-0.3294;-0.0887;0.5151;2.2424;0.001;-4.96;59.75;25.64;351.36;44.09;-177.32;0.0;999.79;58.243;35.772766;-78.67771;263.55;340.2510969738746;;;69.37097;;0 / 19;156507;2018-03-09 12:06:17:199
0.3922;-10.2848;-7.7833;-1.3486;-6.5482;-7.179;-3.174;4.504;-0.1009;0.5007;1.3011;-0.2451;0.001;7.65;60.02;24.29;7.0;41.87;169.36;0.0;1000.16;55.64;35.772766;-78.67771;263.55;340.2510969738746;;;69.37097;;0 / 19;157007;2018-03-09 12:06:17:699
0.3212;-8.8233;-4.9019;-1.1686;-8.2203;-5.2246;-1.3321;-0.572;-0.1574;-0.0415;-0.1552;0.3209;0.001;9.39;60.42;15.25;14.66;54.22;175.95;0.0;999.92;53.708;35.772766;-78.67771;263.55;340.2510969738746;;;69.37097;;0 / 19;157506;2018-03-09 12:06:18:198
-6.188;-14.3309;-6.8455;-1.1677;-8.1519;-5.331;1.8121;-4.4411;1.8934;0.0474;-0.846;-2.7612;0.001;14.5;55.82;19.06;14.12;54.75;149.31;0.0;999.89;56.73;35.772766;-78.67771;263.55;340.2510969738746;;;69.37097;;0 / 19;158006;2018-03-09 12:06:18:698
0.0486;-10.9033;-5.4737;2.1208;-9.2743;-2.3927;8.2349;-0.128;-8.1783;0.4863;1.4756;-0.4402;0.001;-11.73;61.39;-1.49;335.1;65.02;-155.75;0.0;999.46;55.541;35.772766;-78.67771;263.55;340.2510969738746;;;69.37097;;0 / 19;158507;2018-03-09 12:06:19:199
3.4115;-11.8876;-2.4738;-0.1769;-9.8055;-0.2394;-0.2465;2.0898;5.4179;-3.2359;-0.1375;0.0841;0.001;3.89;54.85;-9.74;319.81;74.73;-0.73;0.0;999.66;55.08;35.772766;-78.67771;263.55;340.2510969738746;;;69.37097;;0 / 19;159007;2018-03-09 12:06:19:699
-1.1563;-9.6653;-3.8012;0.5345;-9.5403;-2.2209;1.6247;0.7801;3.032;1.969;1.1382;0.3271;0.001;-3.3;59.16;18.31;161.91;76.53;-166.47;0.0;999.65;60.964;35.772766;-78.67771;263.55;340.2510969738746;;;69.37097;;0 / 19;159508;2018-03-09 12:06:20:200
-1.5969;-10.5753;-2.4571;-0.4181;-9.0802;-3.6893;-1.3348;-3.6965;-4.5836;-3.5489;-0.1623;0.9592;0.001;15.26;48.9;39.32;130.07;81.43;-158.23;0.0;999.75;58.572;35.772766;-78.67771;263.55;340.2510969738746;;;69.37097;;0 / 19;160007;2018-03-09 12:06:20:699
0.7126;-10.7459;-7.1993;-0.0164;-9.6125;-1.9585;-1.029;0.5661;-5.2931;-0.375;0.4853;0.1162;0.001;25.93;66.13;31.14;124.08;78.48;179.52;0.0;999.76;59.649;35.772766;-78.67771;263.55;340.2510969738746;;;69.37097;;0 / 19;160506;2018-03-09 12:06:21:198
2.6909;-14.2111;1.297;0.9463;-9.6339;-1.5899;-1.0568;0.9653;2.7431;-0.9672;-0.472;0.0404;0.001;6.0;69.73;5.46;32.74;79.13;-149.24;0.0;999.75;59.215;35.772766;-78.67771;263.55;340.2510969738746;;;69.37097;;0 / 19;161006;2018-03-09 12:06:21:698
-1.3934;-13.9544;-2.5602;0.143;-9.7371;-1.1854;-1.236;4.2083;2.3658;0.7589;-1.34;-0.7619;0.001;-3.91;54.28;-3.15;334.44;83.01;-173.12;0.0;999.78;60.749;35.772766;-78.67771;263.55;340.2510969738746;;;69.37097;;0 / 19;161507;2018-03-09 12:06:22:199
2.7978;-4.7047;-4.3165;-0.1915;-9.7699;-0.8657;-2.1845;-1.1913;-4.0995;2.7745;0.2568;0.2923;0.001;6.88;48.85;2.93;4.35;59.69;-175.58;0.0;999.69;55.477;35.772766;-78.67771;263.55;340.2510969738746;;;69.37097;;0 / 19;162007;2018-03-09 12:06:22:699
-2.5405;-4.1903;-1.1773;0.2868;-9.1723;-3.4675;-0.7887;0.8628;0.7653;3.3382;-0.1158;0.7354;0.001;20.91;56.52;-6.69;30.42;51.5;-171.39;0.0;999.84;60.354;35.772766;-78.67771;263.55;340.2510969738746;;;69.37097;;0 / 19;162507;2018-03-09 12:06:23:199
2.813;-8.3861;0.2266;4.044;-8.8558;-1.2072;1.6481;-0.4121;-1.433;-2.2114;2.3701;0.7758;0.001;14.78;52.44;47.16;64.8;64.52;-106.62;0.0;999.81;59.53;35.772766;-78.67771;263.55;340.2510969738746;;;69.37097;;0 / 19;163006;2018-03-09 12:06:23:698
8.1085;-2.917;-5.1464;6.5307;-6.6118;-3.1415;-1.7169;-6.1611;2.6321;-1.1103;1.478;1.4631;0.001;-30.79;14.17;55.95;129.34;52.36;-124.22;0.0;1000.09;66.225;35.772766;-78.67771;263.55;340.2510969738746;;;69.37097;;0 / 19;163506;2018-03-09 12:06:24:198
17.1091;-9.9822;5.1716;7.7936;-5.9488;0.3269;4.4592;12.0638;-8.5694;-0.6084;-0.8954;-5.3634;0.001;-39.53;30.35;30.6;94.81;64.05;-59.81;2.0;999.58;54.417;35.772766;-78.67771;263.55;340.2510969738746;;;69.37097;;0 / 19;164006;2018-03-09 12:06:24:698
1.8353;2.7337;6.3686;4.7978;2.4571;8.1964;2.8519;0.196;1.6899;-1.0727;1.0684;0.8109;95.203;-17.28;-1.06;-18.13;63.27;-21.45;-39.85;2.0;999.85;50.15;35.772766;-78.67771;263.55;340.2510969738746;;;69.37097;;0 / 19;164508;2018-03-09 12:06:25:200
5.5205;-0.1093;-2.8235;6.322;5.1319;5.4711;4.0881;7.5983;12.1676;-2.2356;-0.3888;-1.1412;95.203;-33.84;-10.23;0.9;85.04;-31.28;-46.86;2.0;999.92;53.047;35.772766;-78.67771;263.55;340.2510969738746;;;69.37097;;0 / 19;165007;2018-03-09 12:06:25:699
9.974;8.4863;19.1613;4.6001;5.7681;6.4656;6.0663;-0.7463;-4.8785;2.8112;1.3603;1.0251;95.203;-14.43;-15.22;-25.36;337.41;-25.62;-35.71;2.0;999.97;47.682;35.772766;-78.67771;263.55;340.2510969738746;;;69.37097;;0 / 19;165506;2018-03-09 12:06:26:198
-1.3228;6.1044;8.31;2.5017;4.4499;8.3771;4.7924;-1.2622;0.8054;-0.2143;-0.5212;-1.7371;38.259;-2.26;-9.0;-37.55;314.35;-26.98;-16.63;2.0;999.95;53.011;35.772766;-78.67771;263.55;340.2510969738746;;;69.37097;;0 / 19;166006;2018-03-09 12:06:26:698
4.7399;10.5347;12.5602;2.4649;7.6849;5.5769;-2.1157;2.38;3.2691;0.3751;-0.0711;0.8288;38.259;2.57;-23.67;-19.44;248.67;-47.96;-13.49;2.0;999.95;45.231;35.772766;-78.67771;263.55;340.2510969738746;;;69.37097;;0 / 19;166506;2018-03-09 12:06:27:198
1.8223;5.1517;7.1051;2.9915;3.9261;8.4778;3.4755;3.635;5.1118;-0.6833;0.4709;-1.275;24.023;-5.86;8.17;-38.58;331.67;-25.77;-27.18;2.0;999.91;52.154;35.772766;-78.67771;263.55;340.2510969738746;;;69.37097;;0 / 19;167006;2018-03-09 12:06:27:698
4.2379;-0.2486;-1.8174;5.0521;8.2206;1.7704;1.0991;9.109;3.581;3.0869;-1.0898;1.6599;30.252;-21.17;-16.45;-5.35;13.52;-56.93;-70.69;2.0;999.88;47.631;35.772766;-78.67771;263.55;340.2510969738746;;;69.37097;;0 / 19;167506;2018-03-09 12:06:28:198
4.4987;7.0052;6.769;7.7539;5.5942;2.1952;7.6573;-0.0526;-2.6026;-0.6055;-1.7726;-0.0818;30.252;-33.28;-2.06;-14.46;346.48;-34.77;-74.19;2.0;999.88;52.597;35.772766;-78.67771;263.55;340.2510969738746;;;69.37097;;0 / 19;168006;2018-03-09 12:06:28:698
2.0151;-3.3549;-2.7892;3.8931;8.4142;3.2065;5.5535;14.6884;5.3536;1.1488;0.8209;0.2192;21.354;-6.51;-20.47;0.28;144.25;-52.39;-48.32;2.0;999.84;51.177;35.772766;-78.67771;263.55;340.2510969738746;;;69.37097;;0 / 19;168506;2018-03-09 12:06:29:198
14.3487;5.0701;4.3516;9.7127;1.3015;0.4537;-6.1731;-5.2852;-1.8912;-0.7511;0.5015;3.8447;31.141;-39.24;-3.52;8.31;83.29;-7.62;-87.33;2.0;999.86;46.418;35.772766;-78.67771;263.55;340.2510969738746;;;69.37097;;0 / 19;169006;2018-03-09 12:06:29:698
10.2988;-1.6073;0.6901;7.4061;-6.417;0.4567;-2.6088;-4.9605;2.2052;1.1196;0.1568;2.0229;4.449;-36.73;48.21;27.35;65.63;40.85;-86.47;0.0;999.9;45.454;35.772766;-78.67771;263.55;340.2510969738746;;;69.37097;;0 / 19;169506;2018-03-09 12:06:30:198
4.4795;-2.0419;-4.7974;6.9883;-2.447;-6.4353;-0.3997;-1.5481;-0.9739;1.834;-0.8774;-1.5013;4.449;-15.32;45.57;41.25;48.37;19.39;-125.08;0.0;1000.26;50.971;35.772766;-78.67771;263.55;340.2510969738746;;;69.37097;;0 / 19;170007;2018-03-09 12:06:30:699
4.7255;-7.8393;-0.9516;5.126;-8.3608;0.2408;-0.4693;-1.9373;2.9192;2.4093;-0.5633;0.7917;0.001;-6.87;63.24;17.52;25.4;48.49;-103.03;0.0;999.74;52.497;35.772766;-78.67771;263.55;340.2510969738746;;;69.37097;;0 / 19;170507;2018-03-09 12:06:31:199
8.4484;-11.4376;-1.881;3.8618;-8.8981;-1.4652;0.15;-1.858;-2.7689;0.1129;3.1881;3.5751;0.001;-2.4;64.78;33.92;64.64;65.1;-110.78;0.0;1000.1;57.977;35.772766;-78.67771;263.55;340.2510969738746;;;69.37097;;0 / 19;171007;2018-03-09 12:06:31:699
4.4828;-9.9933;-2.2691;4.8094;-6.6128;-5.42;5.3781;-5.3741;-3.8845;-1.4045;-2.8019;-1.8817;0.001;9.49;55.37;46.47;301.75;82.21;48.01;0.0;999.76;64.079;35.772766;-78.67771;263.55;340.2510969738746;;;69.37097;;0 / 19;171506;2018-03-09 12:06:32:198
7.662;-6.652;-3.7495;-0.315;-9.731;1.2018;-7.5673;-5.9507;5.5828;0.3902;0.4503;1.2521;0.001;23.11;37.15;43.22;71.59;72.35;-108.88;0.0;999.77;55.191;35.772766;-78.67771;263.55;340.2510969738746;;;69.37097;;0 / 19;172007;2018-03-09 12:06:32:699
7.9627;-21.8246;2.3378;2.916;-9.2065;-1.7245;0.8827;-4.6697;-9.2087;1.3844;4.4326;1.5836;0.001;7.78;12.24;17.09;67.18;50.62;-145.94;0.0;999.79;58.161;35.772766;-78.67771;263.55;340.2510969738746;;;69.37097;;0 / 19;172506;2018-03-09 12:06:33:198
6.3791;-17.2618;-3.2993;5.6544;-6.8282;-4.1999;-6.4009;15.0187;5.2638;-1.6834;-3.5291;-3.8095;0.001;-0.33;23.44;9.4;76.71;77.44;-110.0;0.0;999.58;54.381;35.772766;-78.67771;263.55;340.2510969738746;;;69.37097;;0 / 19;173006;2018-03-09 12:06:33:698
2.9321;-11.2655;-0.3322;1.6939;-9.662;0.1163;-1.6631;4.5241;0.3915;1.5626;0.6366;2.2747;0.001;10.0;32.95;-8.77;344.48;67.59;-112.52;0.0;999.82;58.417;35.772766;-78.67771;263.55;340.2510969738746;;;69.37097;;0 / 19;173506;2018-03-09 12:06:34:198
4.0659;-9.855;-4.8934;4.3299;-5.8209;-6.6035;4.1545;-3.6714;-5.6702;-1.1109;-2.842;-0.3727;0.001;-29.33;61.0;-13.66;326.75;46.94;-126.91;0.0;999.65;60.313;35.772766;-78.67771;263.55;340.2510969738746;;;69.37097;;0 / 19;174006;2018-03-09 12:06:34:698
1.7336;-4.2778;-4.5281;4.2139;-7.5801;-4.5849;2.0385;3.2768;-0.0072;1.9822;0.8421;0.6228;0.001;-32.79;50.93;-23.55;315.99;38.05;-148.23;0.0;1000.06;53.97;35.772766;-78.67771;263.55;340.2510969738746;;;69.37097;;0 / 19;174507;2018-03-09 12:06:35:199
2.3162;-8.831;0.22;-0.8131;-9.6901;1.2949;-4.2444;-1.2549;0.2182;0.5823;0.263;1.6111;0.001;12.03;37.72;-38.58;162.23;81.03;32.13;0.0;999.44;51.504;35.772766;-78.67771;263.55;340.2510969738746;;;69.37097;;0 / 19;175006;2018-03-09 12:06:35:698
-0.0132;-7.3584;0.2495;4.2126;-8.1491;-3.4759;4.8287;-3.9003;-4.7625;-0.6716;-2.4734;-2.2886;0.001;-25.13;62.07;-9.63;312.58;74.59;-131.79;0.0;999.57;54.979;35.772766;-78.67771;263.55;340.2510969738746;;;69.37097;;0 / 19;175506;2018-03-09 12:06:36:198
1.1683;-10.6073;1.7654;3.0376;-8.8103;-3.0638;-0.719;2.3716;-0.706;0.7825;-0.1475;0.5204;0.001;-31.63;56.65;-9.16;295.51;61.41;-137.64;0.0;999.79;56.521;35.772766;-78.67771;263.55;340.2510969738746;;;69.37097;;0 / 19;176007;2018-03-09 12:06:36:699
2.0088;-9.9263;-0.8153;1.6389;-9.6011;-1.17;-0.7494;-0.0487;-0.0673;-0.0865;1.0692;0.0824;0.001;-20.57;55.64;-15.82;278.71;78.15;-125.52;0.0;999.5;57.097;35.772766;-78.67771;263.55;340.2510969738746;;;69.37097;;0 / 19;176507;2018-03-09 12:06:37:199
2.4867;-9.976;-1.3705;3.45;-8.9232;-2.1701;1.902;1.263;-0.3268;-1.3886;0.6611;-0.5653;0.001;-10.57;58.24;-17.62;295.96;78.54;-117.82;0.0;999.61;51.569;35.772766;-78.67771;263.55;340.2510969738746;;;69.37097;;0 / 19;177006;2018-03-09 12:06:37:698
1.7546;-10.2128;-2.9927;3.0054;-8.8261;-3.0501;2.554;1.0525;-7.7289;-0.2064;1.1817;0.0577;0.001;3.35;63.7;-3.87;359.32;63.28;-140.25;0.0;999.87;56.765;35.772766;-78.67771;263.55;340.2510969738746;;;69.37097;;0 / 19;177507;2018-03-09 12:06:38:199
3.0623;-11.2519;1.2704;-0.2435;-9.7949;-0.4874;-4.2858;2.9902;-0.9241;-0.515;0.391;0.398;0.001;24.71;57.54;2.34;25.7;86.59;-119.63;0.0;999.51;62.015;35.772766;-78.67771;263.55;340.2510969738746;;;69.37097;;0 / 19;178006;2018-03-09 12:06:38:698
0.761;-9.3744;0.3585;2.8942;-8.7449;-3.3743;1.9885;0.2354;-4.5809;1.906;-3.5477;-1.0713;0.001;-13.86;69.57;-15.37;328.86;63.05;-139.38;0.0;999.5;58.486;35.772766;-78.67771;263.55;340.2510969738746;;;69.37097;;0 / 19;178507;2018-03-09 12:06:39:199
-1.6335;-9.1192;0.4744;0.2972;-9.8014;-0.2841;-0.5181;-2.3911;-1.1205;1.4023;-2.1306;1.2502;0.001;-20.86;58.77;-26.37;292.5;74.8;-126.01;0.0;999.65;50.114;35.772766;-78.67771;263.55;340.2510969738746;;;69.37097;;0 / 19;179007;2018-03-09 12:06:39:699
3.6202;-10.9901;-0.0364;2.6875;-9.0285;-2.7387;0.4885;1.1575;-3.4394;-0.5613;-1.8914;-2.8217;0.001;-34.62;46.43;-20.63;312.18;81.61;175.52;0.0;999.45;55.058;35.772766;-78.67771;263.55;340.2510969738746;;;69.37097;;0 / 19;179507;2018-03-09 12:06:40:199
-2.6578;-8.0577;4.1902;2.5422;-9.4382;-0.8328;8.8601;-3.7531;-5.9007;0.8591;1.9481;1.0118;0.001;-30.27;29.31;-22.44;246.85;74.18;-108.14;0.0;999.87;54.758;35.772766;-78.67771;263.55;340.2510969738746;;;69.37097;;0 / 19;180006;2018-03-09 12:06:40:698
-0.2059;-14.8465;0.3496;0.5186;-9.7857;-0.4546;-8.664;2.3043;3.8612;-1.9182;-1.7474;-2.1833;0.001;7.45;44.08;-34.58;135.23;78.45;45.38;0.0;999.42;48.398;35.772766;-78.67771;263.55;340.2510969738746;;;69.37097;;0 / 19;180506;2018-03-09 12:06:41:198
13.6899;-20.0339;-9.4542;3.3546;-9.016;-1.9222;6.6455;-3.7731;-0.0117;0.0644;2.0029;0.3459;0.001;-33.98;75.7;-2.22;287.87;65.73;-124.56;0.0;999.66;54.188;35.772766;-78.67771;263.55;340.2510969738746;;;69.37097;;0 / 19;181007;2018-03-09 12:06:41:699
5.7968;-9.5002;1.5999;-0.552;-9.7674;0.7271;-8.2439;1.8722;4.7404;-1.4685;0.1457;-1.3139;0.001;8.18;73.49;-18.86;247.33;77.78;-27.97;0.0;999.48;64.242;35.772766;-78.67771;263.55;340.2510969738746;;;69.37097;;0 / 19;181506;2018-03-09 12:06:42:198
9.6684;-14.5876;-12.2425;2.7879;-9.0779;-2.4609;5.3995;-4.3616;-0.491;1.8345;-0.5057;1.1305;0.001;-28.04;70.55;8.39;281.68;67.72;-131.44;0.0;999.6;59.747;35.772766;-78.67771;263.55;340.2510969738746;;;69.37097;;0 / 19;182007;2018-03-09 12:06:42:699
4.6386;-9.088;1.4037;-0.7526;-9.6521;1.5829;-5.5629;-1.2622;1.3536;0.1618;1.6538;1.562;0.001;4.73;68.22;-17.47;240.72;80.2;-49.03;0.0;999.51;55.797;35.772766;-78.67771;263.55;340.2510969738746;;;69.37097;;0 / 19;182507;2018-03-09 12:06:43:199
-3.304;-2.2551;1.9072;3.3986;-8.6243;-3.2105;-5.2004;9.5301;4.7702;1.0746;-1.4434;-0.2964;0.001;-21.76;74.23;4.5;327.76;61.54;-133.37;0.0;999.58;55.72;35.772766;-78.67771;263.55;340.2510969738746;;;69.37097;;0 / 19;183007;2018-03-09 12:06:43:699
2.8267;-8.5034;-0.1313;-0.0624;-9.7256;1.2822;-7.3895;-1.031;0.085;0.537;1.8387;1.5064;0.001;5.35;70.17;-9.6;302.97;80.56;-84.84;0.0;999.51;61.641;35.772766;-78.67771;263.55;340.2510969738746;;;69.37097;;0 / 19;183508;2018-03-09 12:06:44:200
-2.3053;-3.2064;0.0541;3.2892;-8.397;-3.8612;6.7395;-6.3416;-7.8609;-0.3122;-2.4051;-1.1466;0.001;-24.59;60.08;13.82;228.03;69.67;-131.39;0.0;999.5;69.749;35.772766;-78.67771;263.55;340.2510969738746;;;69.37097;;0 / 19;184006;2018-03-09 12:06:44:698
-0.1338;-8.5269;1.2841;-0.9692;-9.7235;0.8663;-0.766;-1.0196;-1.2064;1.0597;1.1871;1.9648;0.001;1.72;66.01;-6.09;43.55;82.39;48.21;0.0;999.56;62.09;35.772766;-78.67771;263.55;340.2510969738746;;;69.37097;;0 / 19;184507;2018-03-09 12:06:45:199
-1.2288;-4.9128;1.6782;3.0726;-8.5953;-3.5938;6.8757;-6.4659;-5.6632;0.2509;-2.7659;-2.4832;0.001;-26.43;73.25;28.79;319.38;61.19;-139.47;0.0;999.76;61.179;35.772766;-78.67771;263.55;340.2510969738746;;;69.37097;;0 / 19;185006;2018-03-09 12:06:45:698
1.2752;-7.9368;1.5393;0.4047;-9.7804;0.6455;-0.7324;-2.002;-0.6264;1.2903;1.2847;1.2458;0.001;-21.33;78.33;13.95;191.94;76.0;-126.38;0.0;999.66;62.514;35.772766;-78.67771;263.55;340.2510969738746;;;69.37097;;0 / 19;185507;2018-03-09 12:06:46:199
1.7676;-8.4379;0.5819;2.9712;-8.8978;-2.87;-0.0836;-0.1915;-2.5474;-0.5545;-1.8021;-3.0914;0.001;-23.96;65.99;27.75;249.18;83.29;160.07;0.0;999.35;56.329;35.772766;-78.67771;263.55;340.2510969738746;;;69.37097;;0 / 19;186006;2018-03-09 12:06:46:698
1.698;-8.728;0.8205;0.4286;-9.794;0.3616;-0.8489;1.2857;-3.202;1.4188;1.8381;1.368;0.001;3.81;85.9;5.29;40.84;73.05;-128.21;0.0;999.65;62.725;35.772766;-78.67771;263.55;340.2510969738746;;;69.37097;;0 / 19;186506;2018-03-09 12:06:47:198
3.3461;-10.1433;-0.2886;2.7466;-9.0336;-2.6619;1.1063;-1.3846;-3.4162;-1.2396;-0.4797;-3.3188;0.001;-3.8;87.24;16.67;257.49;85.81;136.64;0.0;999.09;55.783;35.772766;-78.67771;263.55;340.2510969738746;;;69.37097;;0 / 19;187007;2018-03-09 12:06:47:699
2.5197;-10.0348;0.2384;1.2216;-9.7079;-0.7074;-1.7215;0.9184;-1.1006;1.2276;1.6131;1.6509;0.001;-21.57;70.52;16.82;215.95;68.65;-140.16;0.0;1000.58;57.822;35.772766;-78.67771;263.55;340.2510969738746;;;69.37097;;0 / 19;187506;2018-03-09 12:06:48:198
3.1071;-11.9961;-0.2724;2.1875;-9.1443;-2.7989;0.5811;4.3755;0.6114;-1.4501;0.0701;-3.3732;0.001;-24.55;58.8;20.57;296.78;82.58;128.9;0.0;999.49;59.228;35.772766;-78.67771;263.55;340.2510969738746;;;69.37097;;0 / 19;188007;2018-03-09 12:06:48:699
-0.008;-10.8706;-0.0127;1.2518;-9.72;-0.4378;5.7188;6.5379;-7.821;1.3451;1.5836;1.8984;0.001;-17.08;50.42;12.44;223.74;70.6;-132.74;0.0;1000.6;64.102;35.772766;-78.67771;263.55;340.2510969738746;;;69.37097;;0 / 19;188507;2018-03-09 12:06:49:199
5.431;-11.8913;-2.1214;-2.2004;-9.5486;0.468;0.7729;4.6426;0.5407;-0.8912;0.6166;-0.7723;0.001;7.99;52.63;-4.36;31.09;76.74;77.99;0.0;999.97;58.274;35.772766;-78.67771;263.55;340.2510969738746;;;69.37097;;0 / 19;189006;2018-03-09 12:06:49:698
-1.6394;-4.7305;0.9022;2.4364;-9.0983;-2.7423;7.9037;6.1316;-3.1558;0.2729;-0.8557;-0.4904;0.001;-13.06;68.95;-10.37;326.51;68.04;-138.38;0.0;1000.29;64.627;35.772766;-78.67771;263.55;340.2510969738746;;;69.37097;;0 / 19;189508;2018-03-09 12:06:50:200
4.4765;-13.5831;1.3978;-3.2572;-9.2222;0.7606;-9.0455;3.4531;3.0809;-0.3311;0.4827;0.3355;0.001;21.31;65.16;-25.41;97.01;70.06;76.86;0.0;999.75;60.261;35.772766;-78.67771;263.55;340.2510969738746;;;69.37097;;0 / 19;190007;2018-03-09 12:06:50:699
5.5497;-13.8761;-6.8687;2.1577;-9.1734;-2.7255;0.6299;1.7004;3.6481;-0.5347;0.5066;-1.4648;0.001;-39.87;58.75;-1.96;277.72;65.77;-144.25;0.0;1000.32;62.308;35.772766;-78.67771;263.55;340.2510969738746;;;69.37097;;0 / 19;190506;2018-03-09 12:06:51:198
2.5633;-12.0796;1.5275;-3.1915;-9.2313;0.9134;-8.4195;1.4114;4.2149;-0.1288;0.4434;0.6668;0.001;-7.54;55.34;-18.81;44.36;70.22;74.03;0.0;999.85;60.841;35.772766;-78.67771;263.55;340.2510969738746;;;69.37097;;0 / 19;191007;2018-03-09 12:06:51:699
13.5985;-21.5293;-11.2803;0.994;-9.4215;-2.5462;2.5033;-2.295;2.8459;0.2256;-0.1451;0.3482;0.001;-34.7;41.07;3.84;264.01;65.09;-144.78;0.0;999.65;62.627;35.772766;-78.67771;263.55;340.2510969738746;;;69.37097;;0 / 19;191506;2018-03-09 12:06:52:198
1.9034;-11.0206;0.9457;-3.1717;-9.2336;0.9578;-5.052;2.8615;-0.1446;0.2023;0.9693;0.7922;0.001;-5.22;37.7;-20.11;76.04;78.2;58.93;0.0;999.8;63.694;35.772766;-78.67771;263.55;340.2510969738746;;;69.37097;;0 / 19;192007;2018-03-09 12:06:52:699
10.56;-16.4952;-11.2242;0.7348;-9.5088;-2.2976;4.2731;-10.2377;0.5536;1.1452;-1.0468;1.4101;0.001;-21.07;51.56;-4.04;299.89;65.0;-140.8;0.0;999.61;57.842;35.772766;-78.67771;263.55;340.2510969738746;;;69.37097;;0 / 19;192507;2018-03-09 12:06:53:199
4.7458;-9.6421;0.9225;-2.6085;-9.3512;1.4098;-7.0741;2.3425;-0.3342;0.4288;1.5015;1.3149;0.001;-5.64;52.75;-8.79;32.4;72.41;61.61;0.0;999.3;63.806;35.772766;-78.67771;263.55;340.2510969738746;;;69.37097;;0 / 19;193006;2018-03-09 12:06:53:698
-3.2822;-3.598;-3.9575;0.8868;-9.4622;-2.4325;4.6357;-5.4813;-0.6488;1.7835;-0.8845;0.595;0.001;-24.86;37.95;13.49;245.06;67.87;-151.47;0.0;999.52;57.425;35.772766;-78.67771;263.55;340.2510969738746;;;69.37097;;0 / 19;193506;2018-03-09 12:06:54:198
1.4787;-9.4678;0.7311;-2.8938;-9.2664;1.413;-3.5841;-0.2738;1.4504;0.6842;1.6141;1.3125;0.001;-12.47;32.03;-10.06;43.37;81.28;74.39;0.0;999.52;64.108;35.772766;-78.67771;263.55;340.2510969738746;;;69.37097;;0 / 19;194007;2018-03-09 12:06:54:699
-3.5501;-1.893;2.298;1.3007;-9.0156;-3.6418;2.7282;-4.3758;-4.7443;0.0729;-2.3883;-0.6823;0.001;-12.77;49.49;-2.4;336.75;72.23;-159.15;0.0;999.2;55.238;35.772766;-78.67771;263.55;340.2510969738746;;;69.37097;;0 / 19;194507;2018-03-09 12:06:55:199
1.8453;-9.3608;0.6573;-1.4236;-9.6661;0.8804;-3.1913;0.3036;-0.1451;1.1877;1.495;1.2193;0.001;1.11;50.34;-13.93;87.8;80.18;58.27;0.0;999.61;57.036;35.772766;-78.67771;263.55;340.2510969738746;;;69.37097;;0 / 19;195006;2018-03-09 12:06:55:698
-1.4962;-4.162;1.7413;1.4172;-9.0027;-3.6302;1.4988;-3.7412;-3.6569;-0.596;-3.1443;-1.7479;0.001;0.65;56.79;2.09;22.57;73.37;86.27;0.0;999.45;52.257;35.772766;-78.67771;263.55;340.2510969738746;;;69.37097;;0 / 19;195506;2018-03-09 12:06:56:198
-2.161;-8.8431;3.7975;-0.9345;-9.7647;0.1156;-3.1919;2.4036;-1.1482;1.1042;0.9053;1.0526;0.001;7.22;58.57;-1.88;25.88;81.64;-162.6;0.0;999.75;61.25;35.772766;-78.67771;263.55;340.2510969738746;;;69.37097;;0 / 19;196006;2018-03-09 12:06:56:698
-3.6037;-16.2838;2.0095;-1.2867;-9.6163;-1.4519;1.1688;-2.1207;-3.0224;-2.0908;-1.8754;-2.208;0.001;-3.49;58.32;13.18;289.66;78.59;138.45;0.0;999.51;50.752;35.772766;-78.67771;263.55;340.2510969738746;;;69.37097;;0 / 19;196507;2018-03-09 12:06:57:199
-3.5083;-10.2484;2.4753;1.1289;-9.5635;-1.8711;-1.2939;3.0531;-2.0178;0.182;1.0351;-0.001;0.001;-11.8;45.76;8.39;248.06;77.13;-148.9;0.0;999.93;61.498;35.772766;-78.67771;263.55;340.2510969738746;;;69.37097;;0 / 19;197007;2018-03-09 12:06:57:699
3.9879;-10.1716;-2.7072;-2.4086;-9.5096;-0.0538;0.0777;5.3966;1.3285;-1.0876;0.305;-0.9757;0.001;3.13;40.12;-6.74;44.99;75.78;91.28;0.0;999.45;54.916;35.772766;-78.67771;263.55;340.2510969738746;;;69.37097;;0 / 19;197506;2018-03-09 12:06:58:198
-2.0293;-5.6721;1.4721;1.1296;-9.5036;-2.1546;3.0237;-2.2762;-6.551;0.2428;-0.8848;-0.5899;0.001;-15.04;46.16;-8.85;305.34;75.64;-152.33;0.0;999.68;59.358;35.772766;-78.67771;263.55;340.2510969738746;;;69.37097;;0 / 19;198006;2018-03-09 12:06:58:698
2.2552;-10.6073;1.7129;-2.7516;-9.3722;0.9087;-8.0996;1.6237;2.2742;-0.0544;0.7782;0.4013;0.001;8.86;41.24;-19.57;100.04;78.33;64.71;0.0;999.48;56.408;35.772766;-78.67771;263.55;340.2510969738746;;;69.37097;;0 / 19;198506;2018-03-09 12:06:59:198
1.7872;-10.9426;-8.2782;0.5723;-9.6348;-1.7549;-15.9967;14.4843;2.9599;2.1004;-0.2044;1.0773;0.001;-18.42;54.04;-15.11;310.65;79.15;-161.94;0.0;999.54;57.482;35.772766;-78.67771;263.55;340.2510969738746;;;69.37097;;0 / 19;199007;2018-03-09 12:06:59:699
3.912;-8.8975;-0.2982;-2.2666;-9.4657;1.2244;-7.1355;-1.2997;0.9467;0.5553;0.7391;1.0683;0.001;1.57;49.86;-21.18;84.13;74.78;61.62;0.0;999.48;64.111;35.772766;-78.67771;263.55;340.2510969738746;;;69.37097;;0 / 19;199507;2018-03-09 12:07:00:199
2.9739;-4.9514;-0.7677;6.4764;-6.5793;-3.3175;1.9215;-2.7243;0.1854;0.6071;-0.8999;-1.6887;0.001;-27.93;48.32;-0.61;267.5;66.54;-127.27;0.0;999.47;53.962;35.772766;-78.67771;263.55;340.2510969738746;;;69.37097;;0 / 19;200006;2018-03-09 12:07:00:698
4.579;-7.1797;0.0951;4.9446;-8.4508;-0.6086;-1.928;-2.2003;-1.5468;0.2134;0.9507;0.3477;0.001;-29.96;48.71;-2.63;266.12;59.48;-97.02;0.0;999.47;56.195;35.772766;-78.67771;263.55;340.2510969738746;;;69.37097;;0 / 19;200506;2018-03-09 12:07:01:198
3.1897;-8.2283;-2.1551;3.5057;-8.8506;-2.3692;0.7903;1.0189;-1.1627;-2.4083;0.0576;-0.7648;0.001;-28.99;52.94;5.35;193.12;76.53;-84.71;0.0;999.5;49.341;35.772976;-78.677986;;NaN;;;2258.0613;;0 / 19;201007;2018-03-09 12:07:01:699
4.5711;-12.9092;-0.9403;1.5374;-9.6374;-0.9964;-4.729;7.9869;-1.3491;1.1635;-1.6891;0.6181;0.001;-31.32;45.48;9.93;219.04;71.51;-129.08;0.0;999.54;66.807;35.772976;-78.677986;;NaN;;;2258.0613;;0 / 19;201506;2018-03-09 12:07:02:198
3.471;-11.272;0.8555;0.5978;-9.7406;0.9993;-2.2409;-0.9849;-0.1996;0.1584;-1.447;-0.5291;0.001;-26.27;37.71;9.83;90.46;83.18;-30.89;0.0;999.45;53.548;35.772976;-78.677986;;NaN;;;2258.0613;;0 / 19;202006;2018-03-09 12:07:02:698
-0.8042;-9.6432;-2.2031;-0.0017;-9.702;-1.452;-0.4535;-0.2155;1.9331;0.3562;-0.3813;0.4711;0.001;-18.47;33.15;18.9;205.98;73.42;-150.9;0.0;999.58;54.732;35.772976;-78.677986;;NaN;;;2258.0613;;0 / 19;202506;2018-03-09 12:07:03:198
0.2634;-10.4761;-0.6582;0.5391;-9.7629;0.7944;-0.1837;-2.4019;-1.8381;0.5251;1.4292;0.5611;0.001;-16.6;33.7;13.69;153.45;85.33;-106.22;0.0;999.64;53.195;35.772976;-78.677986;;NaN;;;2258.0613;;0 / 19;203006;2018-03-09 12:07:03:698
4.0998;-9.452;1.1052;-0.704;-9.6488;1.6249;-3.6653;-0.3042;0.911;0.2032;1.2263;0.4732;0.001;-11.8;31.05;-4.46;78.02;80.71;3.29;0.0;999.46;47.766;35.772976;-78.677986;;NaN;;;2258.0613;;0 / 19;203507;2018-03-09 12:07:04:199
1.4921;-6.7382;-5.7719;3.1185;-8.7851;-3.0551;5.0961;-5.8932;-2.7285;1.5903;0.0746;0.8341;0.001;-11.88;41.56;1.66;324.47;63.58;-134.41;0.0;999.63;51.825;35.772976;-78.677986;;NaN;;;2258.0613;;0 / 19;204006;2018-03-09 12:07:04:698
2.9012;-9.213;-1.9066;0.4317;-9.7975;0.2405;-4.3672;-0.3159;-1.0901;0.4503;0.736;1.0807;0.001;0.54;47.73;-4.25;288.68;87.11;-60.88;0.0;999.46;51.701;35.772976;-78.677986;;NaN;;;2258.0613;;0 / 19;204506;2018-03-09 12:07:05:198
4.3318;-8.0718;-0.5334;3.0308;-8.5687;-3.6915;5.1395;-3.7993;-4.9186;0.467;-2.4892;-0.9992;0.001;-16.04;50.56;12.77;330.19;60.86;-140.61;0.0;999.55;52.177;35.772976;-78.677986;;NaN;;;2258.0613;;0 / 19;205007;2018-03-09 12:07:05:699
3.7716;-11.2158;-0.5045;1.5817;-9.6406;-0.8909;-1.4353;-1.0882;-0.1527;0.6663;1.2168;1.1348;0.001;-15.41;47.12;4.18;257.88;69.9;-132.13;0.0;999.52;57.704;35.772976;-78.677986;;NaN;;;2258.0613;;0 / 19;205506;2018-03-09 12:07:06:198
6.0438;-10.7904;-4.1334;1.7118;-9.1421;-3.1189;4.2885;7.2804;-6.0652;-0.6995;-0.1494;-1.9543;0.001;-13.92;40.47;6.44;317.16;86.5;137.11;0.0;999.29;48.835;35.772976;-78.677986;;NaN;;;2258.0613;;0 / 19;206007;2018-03-09 12:07:06:699
2.0716;-14.1269;-5.4706;1.8315;-9.5238;-1.4763;-1.9579;1.1602;-5.2953;0.654;1.5;0.8985;0.001;-8.77;35.72;-1.13;290.78;76.13;-128.87;0.0;999.65;70.101;35.772976;-78.677986;;NaN;;;2258.0613;;0 / 19;206507;2018-03-09 12:07:07:199
4.9041;-5.432;3.9706;-2.6647;-7.7931;5.3295;-6.9195;-3.7159;-1.733;-0.8851;1.1424;0.5334;0.001;15.1;26.46;-8.94;299.37;63.48;-19.77;0.0;999.54;60.512;35.772976;-78.677986;;NaN;;;2258.0613;;0 / 19;207006;2018-03-09 12:07:07:698
13.4353;-2.0406;8.3629;-0.8186;1.4221;9.6718;-13.3468;3.2009;1.4086;1.9751;0.6362;-0.3928;0.787;18.84;22.78;-14.72;316.64;0.82;-11.28;2.0;999.39;50.699;35.772976;-78.677986;;NaN;;;2258.0613;;0 / 19;207506;2018-03-09 12:07:08:198
-0.3029;3.9297;8.8082;0.2207;1.5417;9.6856;-0.0861;-2.4307;-0.1704;-0.2018;-0.3029;0.3121;49.826;20.27;34.96;-24.41;333.22;-8.99;1.47;2.0;999.41;56.389;35.772976;-78.677986;;NaN;;;2258.0613;;0 / 19;208006;2018-03-09 12:07:08:698
-0.3786;3.4254;7.9259;0.1324;2.0167;9.5996;1.2776;-0.9683;-0.7995;0.4252;0.1641;-0.1712;31.141;8.75;41.15;-37.9;345.76;-10.06;-4.41;2.0;999.47;43.502;35.772976;-78.677986;;NaN;;;2258.0613;;0 / 19;208506;2018-03-09 12:07:09:198
-1.3693;4.2189;7.0028;-0.2841;3.2428;9.2542;-0.3116;-1.6306;-0.0037;-0.252;0.7909;0.3133;31.141;11.49;31.54;-44.92;345.68;-14.7;-1.98;2.0;999.49;41.36;35.772976;-78.677986;;NaN;;;2258.0613;;0 / 19;209006;2018-03-09 12:07:09:698
-1.6855;5.3768;6.4674;-1.5723;4.5995;8.5211;0.2738;-0.201;3.1606;0.0052;0.4432;-0.6395;28.472;12.05;14.64;-48.98;350.44;-29.21;6.56;2.0;999.5;47.666;35.772976;-78.677986;;NaN;;;2258.0613;;0 / 19;209506;2018-03-09 12:07:10:198
-1.1132;3.3573;6.6943;-0.4794;3.1451;9.2798;0.312;-0.9268;2.4298;-0.2804;-0.4296;0.7414;36.48;10.48;16.58;-50.54;350.26;-18.97;5.95;2.0;999.51;43.287;35.772976;-78.677986;;NaN;;;2258.0613;;0 / 19;210006;2018-03-09 12:07:10:698
1.3154;3.2557;9.2836;0.2961;2.7599;9.4091;0.2949;1.1299;1.8866;-0.1118;0.0135;-0.276;36.48;2.35;12.2;-48.5;346.6;-18.85;-6.09;2.0;999.52;42.715;35.772976;-78.677986;;NaN;;;2258.0613;;0 / 19;210507;2018-03-09 12:07:11:199
-0.7982;2.9294;9.9702;-0.2938;3.0075;9.333;0.8185;-0.4011;0.1323;0.1763;0.0722;0.3427;89.865;12.41;6.22;-40.45;330.14;-17.61;2.4;2.0;999.52;41.1;35.772976;-78.677986;;NaN;;;2258.0613;;0 / 19;211006;2018-03-09 12:07:11:698
0.7419;2.9318;11.9317;0.5153;3.1977;9.2599;-0.1351;-0.9316;-0.6342;-0.0854;-0.4751;-0.6256;409.285;6.88;2.79;-38.89;327.71;-17.57;-0.95;2.0;999.51;42.42;35.772976;-78.677986;;NaN;;;2258.0613;;0 / 19;211506;2018-03-09 12:07:12:198
-1.2707;3.3071;10.0519;-0.2131;3.0126;9.3336;0.7672;-0.1621;-0.6953;0.1084;0.3482;-0.01;457.332;11.38;5.45;-36.56;327.92;-17.88;1.31;2.0;999.5;41.102;35.772976;-78.677986;;NaN;;;2258.0613;;0 / 19;212006;2018-03-09 12:07:12:698